BrightnessEV_mean,trial,experimenter,Peak-Frequency_mean,timestamp,Sound pressure level (dB)_mean,Linear Acceleration x (m/s^2)_mean,Linear Acceleration y (m/s^2)_mean,Linear Acceleration z (m/s^2)_mean,Absolute acceleration (m/s^2)_mean,Inclination (deg)_mean,Rotation (deg)_mean,Peak-Frequency_norm,Sound-pressure-level_norm,Linear-Acceleration-norm,heart_rate
2.600804674311016,1,Esmee,1757.8125,0.0,-26.551764164285714,-0.1272846576689293,-0.0004533718408585,0.0483438576338585,0.3883777735984848,7.939695619,175.8023316,0.8763144717075614,0.15681818860911825,0.10106489247558016,80.2166268372653
2.6061151679679897,1,Esmee,1188.616071428571,1.0,-21.59458394511111,-0.0484967270170643,0.0015671174795643,0.0294911037035346,0.1364706787513861,52.390604805,72.74223587,0.5844481007225122,0.40110967619628496,0.030804766577012088,76.74871626142176
2.642755124175022,1,Esmee,1496.484375,2.0,-22.0945595449,-0.35038863409548,0.19221326311871,0.003258711749525,0.5520806427787001,34.900273625,10.957885224999998,0.7423134702053079,0.376470712586031,0.3343077688454494,82.03838010590212
2.6479178438668702,1,Esmee,1712.053571428571,3.0,-24.271340297777776,0.3007763059573337,-0.8157245499361385,-0.1240664185415841,2.178927782046535,3.256083792,44.822367925,0.852850704628371,0.2691982341284762,0.7579064068670096,86.35064415704521
2.6494404811508474,1,Esmee,1042.4592391304348,4.0,-26.12209622111111,-0.50681549837136,0.20070471540448,0.27352447436328,2.0879173929598,14.200187622,106.09256483,0.5095033855130522,0.17799236755073422,0.5203898685000905,76.48909506887058
2.681400040534692,1,Esmee,79.1015625,5.0,-22.989164867777777,-0.1547921049222673,0.1010485270376881,0.0698542423056336,0.3606863585758416,15.581623035,84.239102245,0.015523284927391086,0.3323842651569322,0.15546354197047338,65.5427852161948
2.7008353148183075,1,Esmee,300.61141304347825,6.0,-26.68388979222222,-0.072360758585468,0.048763403110028,0.05156084117834,0.2320228894205,16.766331185,73.76588470499999,0.1291067035335612,0.15030699378264248,0.07025800995174064,64.94788207567686
2.6928795472056994,1,Esmee,541.015625,7.0,-27.090951673,-0.0374794881131603,0.0178809461149029,0.0777691607762376,0.1835699579066336,16.27520598,79.25549355,0.25237856785177765,0.1302468491039019,0.05858142559224759,67.07918495102035
2.704111082657592,1,Esmee,894.7010869565217,8.0,-28.392793301111112,-0.0308492609222277,0.0161678306164059,0.0674838100278604,0.1744086308975247,13.118741085,87.71449351999999,0.4337375628660382,0.06609166130096253,0.04776478334940183,69.84996945972753
2.7169001772889354,1,Esmee,92.73097826086956,9.0,-25.985347061111117,-0.016228420976702,0.010603332094257,0.06398023366734,0.0806543390028999,12.700599335,91.314275365,0.022512028912934617,0.18473141157287315,0.039719440871838804,62.98477304410788
2.710506933105582,1,Esmee,98.6328125,10.0,-26.933708166666666,-0.0113119090620792,-0.0066909732131831,0.0645758796863366,0.086205820500198,10.4565184705,83.66183091,0.02553830746119179,0.13799586131996133,0.0388760370721826,62.47772478164083
2.7065237605742354,1,Esmee,114.1304347826087,11.0,-27.52169326,-0.008595092355985,0.0015744490611509,0.06133638587664,0.0744904924303,10.892862025,95.383629915,0.03348501012388148,0.10901976063799018,0.035384939536557476,62.261016846425974
2.7697144029697327,1,Esmee,112.3046875,12.0,-27.87570267222222,-0.0029968470959544,-0.0023439909962633,0.063716257932693,0.1087442130638614,10.692577335,87.67623595,0.03254882323485228,0.09157405922953407,0.037043786337426374,62.04621546615086
2.762613239482272,1,Esmee,100.88315217391305,13.0,-26.38067447888889,-0.019070312504473,0.00770731581513,0.059362781025248,0.13139956804,11.605672985,87.041794245,0.026692212231390566,0.16524954512804063,0.03615469552113766,62.8060763503334
2.761668006010258,1,Esmee,94.7265625,14.0,-25.553677631,0.0025732022110099,-0.018158552816,0.0686516784610396,0.2022941294317821,11.09307917,92.34472446,0.023535302954431646,0.2060042244554574,0.04344298609866058,63.29030064134341
2.7668879004821494,1,Esmee,102.9211956521739,15.0,-27.16166281375,0.0053166539240099,-0.0153299622375643,0.0655434259883096,0.2704653898093069,11.898591605,84.45211392499999,0.027737258061004546,0.12676218060305022,0.040311981994772754,62.39838718441487
2.7772487675926367,1,Esmee,125.0,16.0,-27.80530126888889,-0.0068939016038489,-0.0070550435602599,0.0559912180098699,0.2288205413762,7.5019660275,107.7092717,0.03905858788182273,0.09504346376762192,0.030868659491666898,62.168642598781254
2.777707641149396,1,Esmee,91.71195652173913,17.0,-26.237795003,0.0096242332872469,0.0057029703417198,0.064399322721,0.1112223300480495,5.6795817185,115.22489755,0.021989505998127625,0.1722906931531942,0.038401639463606904,62.81449155350974
2.7550253974845758,1,Esmee,108.0163043478261,18.0,-26.734526047777777,-0.0016597146218962,-0.0077657558110889,0.06458077779871,0.1057615253224,6.624030718,116.97085135,0.030349872635039517,0.14781162229147438,0.038139113385069257,62.685849827279036
2.752151958580368,1,Esmee,104.4921875,19.0,-26.911224546666663,0.0018051932310544,-0.0069874487568445,0.0610973942508613,0.0646539911133663,6.737647637,93.30705618,0.028542814221331998,0.13910386158085558,0.03500119180356543,62.52011215782543
2.757400185796208,1,Esmee,118.20652173913044,20.0,-26.99437544,-0.0041278079035649,-0.0088128167196422,0.06536067357729,0.0918001769326,5.6672006150000005,95.095250445,0.03557510178310945,0.13500615794118748,0.0390366600103293,62.643869211039075
2.7555003366139728,1,Esmee,117.1875,21.0,-25.985337466666667,0.0188347746212564,-0.0028716587889554,0.0649446074234653,0.2138601680049504,6.852601782,99.45570595,0.03505257886830245,0.18473188439028215,0.04045327610704023,63.24146039890576
2.739218744347133,1,Esmee,98.84510869565216,22.0,-26.760780175555556,-0.0150664171795247,-0.0073649531055475,0.0594422385454802,0.1772256433069307,7.125708888,98.033936345,0.02564716640177657,0.14651781015502452,0.035214032804143654,62.55286931232897
2.740655440106182,1,Esmee,83.984375,23.0,-28.05468506888889,0.00434535748949,-0.006978045232843,0.062459618461285,0.0727543700602,7.4016437865,95.48894552,0.018027040560841263,0.08275374727789453,0.03630777464027383,61.64404797567375
2.7323791119819147,1,Esmee,74.38858695652173,24.0,-27.180468044,0.0027261845138864,-0.0061295261716782,0.0635911390983168,0.0660319089494059,6.718985156,94.5043117,0.013106616446408741,0.1258354526107084,0.03714492328486451,62.06931714653559
2.6996317350896875,1,Esmee,86.61684782608695,25.0,-26.190731807777777,0.0010063763458316,-0.006803665182154,0.062188880682,0.0659651518951,6.832401495,93.10324391,0.01937689142409266,0.17460998304444536,0.035926971803474844,62.770273399443
2.621870980024889,1,Esmee,75.1953125,26.0,-26.033199337777777,-0.0024556545422629,-0.0066027439391299,0.0612991926632673,0.066012416380891,7.376638707,93.921642435,0.013520280420630946,0.18237323548596915,0.035160967832014466,62.740172176900366
2.566473982061257,1,Esmee,74.38858695652173,27.0,-26.536847343,-0.372156748003759,-0.145818903289929,0.038834195046877,0.4153098930177,8.4469707455,108.731296815,0.013106616446408741,0.15755329451627556,0.3360125161111815,64.84087199201294
2.5474232899865155,1,Esmee,72.265625,28.0,-25.548087416666664,-0.3429397963069307,-0.1264252924510891,0.0455338777171455,0.371656799420792,7.983881508,118.76830545,0.012018027040560842,0.20627971207443466,0.30657190200741713,65.16829230176377
2.5269466353194483,1,Esmee,75.40760869565217,29.0,-25.202828766666663,-0.240983406974,-0.0778295861355,0.05444263556487,0.260636823247,8.8803801805,115.01759975,0.013629139361215736,0.22329417301426327,0.20982353103959359,64.63070111171223
2.561801748165032,1,Esmee,81.0546875,30.0,-25.299487561,-0.1757132624465346,-0.0534282165959405,0.0636799009899009,0.1972987412970297,9.073994392,114.4230972,0.016524787180771158,0.2185307955270505,0.1526044500266299,64.17370089015307
2.601838840230096,1,Esmee,74.38858695652173,31.0,-24.69598525111111,-0.1290625578530693,-0.0393413449021782,0.0687289601250792,0.1547115840376237,9.1897549555,114.52211305,0.013106616446408741,0.248271589794481,0.11457668807762984,64.15800491108298
2.6401173284315145,1,Esmee,70.3125,32.0,-24.061666775,-0.0972342137425,-0.029797728176392,0.06986424585,0.1259219971019,9.121003763,114.76710975,0.011016524787180772,0.27953101496805466,0.08975806299576561,64.29276717932639
2.6167442778845547,1,Esmee,76.42663043478261,33.0,-24.000513546666667,-0.0733168107220792,-0.0217473986536251,0.0733556302967968,0.1112239822733663,8.965372226500001,113.0866156,0.01415166227602273,0.2825446663706246,0.07434341781903744,64.26831658452025
2.599053835506183,1,Esmee,69.29347826086956,34.0,-23.81611247555556,-0.1177065856810999,-0.04321914631857,0.07139237472962,0.15027948333,9.389170377666668,119.21431093333332,0.010494001872373777,0.29163201239854447,0.10826393333293435,64.57557565289349
2.618272742255281,1,Esmee,75.1953125,35.0,-23.12283344777778,-0.4761579216564356,-0.178228845700198,0.0550534747914049,0.5149174230386139,11.356026475,135.33537085,0.013520280420630946,0.3257970331403198,0.4332085461343157,67.64563837517099
2.807423048656273,1,Esmee,69.07894736842105,36.0,-22.586568638,-0.5431575551800001,-0.195717791821,0.0593189385993659,0.585361337975,11.92162991,135.88583285,0.010383997048203886,0.35222434107125394,0.4942756304919676,68.38857707775486
3.005713053668705,1,Esmee,132.421875,37.0,-21.12018111,-0.43653719130099,-0.1472928457965346,0.0683643949158415,0.4818002231128713,11.359646475,138.76724535,0.042864296444667,0.4244884054699524,0.3928172488762254,69.09368478554258
2.884714592035074,1,Esmee,135.69078947368422,38.0,-22.148505333333333,-0.3542529205861386,-0.1003826941746336,0.0954151544865148,0.3972162936039604,12.14095307,133.8380419,0.044540494952955756,0.37381224621547904,0.3172259775399799,67.9143646739647
2.8377226284798254,1,Esmee,80.56640625,39.0,-22.155566183,-0.246549471321,-0.066216150462318,0.09525535297464,0.292871397797,11.834878925,130.200605,0.01627441161742614,0.37346428519884545,0.22173161110225953,66.58091254355274
2.8423558844970387,1,Esmee,70.3125,40.0,-21.141876974444443,-0.1174647753078316,-0.01216968401949,0.1098112309952079,0.181794377070594,11.188240485,129.31504619999998,0.011016524787180772,0.42341922606446675,0.1232845141868469,66.28763732201199
2.7920300691567137,1,Esmee,65.91796875,41.0,-20.37755891444445,-0.016427530912011,0.013794438341418,0.11629611411358,0.1430863384062,10.97692476,127.70781765,0.008763144717075613,0.4610850739077443,0.0852213919855582,66.3900549171189
2.7569912644026564,1,Esmee,64.79779411764706,42.0,-18.42096163888889,0.0471160249989802,0.0066382209066039,0.1095970897500198,0.1729669978142574,10.81341711,124.6804808,0.008188753718813514,0.5575068374751886,0.08630326323325808,67.5442832299446
2.7350557856141875,1,Esmee,70.3125,43.0,-19.092724344,0.1090531929313999,-0.0340041888059791,0.104710540419696,0.1955917619106,10.62109483,121.91664435,0.011016524787180772,0.5244021482604606,0.11771023206288075,67.45483813137218
2.710467022114416,1,Esmee,71.54605263157895,44.0,-18.64970812888889,0.1563668647778217,-0.0929189477263663,0.1160491390715445,0.2799987014108911,11.67826619,124.1853692,0.011649052526157656,0.546234134476356,0.1715253457082278,68.15999342990524
2.705298995194464,1,Esmee,78.515625,45.0,-20.46194001,0.1814109134877227,-0.0924255700901089,0.1037750402785742,0.2665823186820792,10.74613184,118.7993998,0.015222834251377066,0.4569267454939889,0.18282142786098993,67.25014905384333
2.6989873437352463,1,Esmee,73.2421875,46.0,-21.735824665555555,0.1734854865297,-0.072557477766537,0.10209630292814,0.280941195085,11.938937135,116.09153605,0.012518778167250876,0.39414928658369963,0.1699465774102492,66.33973962163141
2.702708505225952,1,Esmee,59.895833333333336,47.0,-19.779975093,0.0999943370154752,0.0704534588858984,0.1214441623244455,0.2286396082395049,11.60023546,115.7997185,0.005675179435820399,0.4905342030989754,0.13311875158402367,67.0648640385763
2.7069449365522047,1,Esmee,89.0625,48.0,-19.445925874444445,0.045190825975334,0.1812444391151,0.128892133444872,0.2693072968759999,10.999089195,114.7986368,0.020630946419629443,0.5069962595343283,0.18142853884480942,67.948002353563
2.731016862361457,1,Esmee,92.578125,49.0,-19.646613506666668,-0.0037178261536039,0.2632267990620792,0.1133482233196227,0.3498653417495049,10.1119589545,125.49436535,0.02243365047571357,0.49710630636573516,0.2342470558851255,68.2879251329841
2.751176019190403,1,Esmee,78.515625,50.0,-21.07070776333333,0.093693901542275,0.2202592751214999,0.116679106737518,0.3538450493661,10.071803231,117.86809795,0.015222834251377066,0.4269264684248491,0.2162472903236191,67.15755262871468
2.755120590188088,1,Esmee,93.75,51.0,-19.991406583,0.5597354104881188,0.1905386588225742,0.129798745104198,0.6419974672356435,6.885159793,89.34149185,0.02303455182774161,0.48011478905082705,0.5163811885667174,70.35311801369849
2.7116244226377497,1,Esmee,66.40625,52.0,-20.043631535555555,0.4946077468613861,0.0298112011320396,0.0969680475973861,0.5315720604534653,8.767275429,103.298794605,0.009013520280420632,0.47754112604385857,0.4274650200976262,69.33048407891573
2.685633273032761,1,Esmee,71.61458333333333,53.0,-20.70853499888889,0.351966120404,0.026224829445582,0.031702375353599,0.430012288548,7.680616529,104.6184395,0.011684192956100816,0.44477446254204117,0.2942117473276045,67.92467138824735
2.691512497504809,1,Esmee,66.796875,54.0,-20.829474088,0.3044586421388118,0.0001188026842772,0.0488247948971975,0.3804642332560396,8.2300173075,102.240115015,0.009213820731096644,0.4388145440641712,0.2534820417969177,67.47790727776733
2.6909855818961583,1,Esmee,61.19791666666666,55.0,-19.98750931555556,0.2246961399782,0.0015061491957429,0.069651699555521,0.290040552301,7.866831209,103.647163,0.0063428476047404396,0.4803068476848555,0.1887769290830939,67.40075455697783
2.679715224527486,1,Esmee,73.50852272727273,56.0,-19.71627658111111,0.1904570968596039,-0.0171868121476643,0.0535212206157326,0.2980657004752475,7.196554673,109.8904507,0.012655346656348161,0.4936732869205067,0.15631877421792567,67.42773656991645
2.703130654076133,1,Esmee,85.4779411764706,57.0,-20.624835346,0.1287343056763999,0.010804802295962,0.065888267841821,0.2470699768478,8.823014602,115.45880335,0.01879289522519073,0.44889920923486176,0.10890926540879146,66.63392253859249
2.9173584566356605,1,Esmee,74.01315789473684,58.0,-19.632737584444445,0.1034088279150495,-0.0085431728459405,0.0684895137520396,0.2684716172214851,12.465523456,128.7100021,0.012914108004111427,0.4977901164213387,0.09059342780193698,66.95651097955378
2.997625682064444,1,Esmee,76.42663043478261,59.0,-20.00413892666667,0.0885393872748712,0.0013498905222143,0.0540885105290099,0.206414484540297,9.201031647,126.24782495,0.01415166227602273,0.4794873349262482,0.07239044454923882,66.61600482102935
2.9976140770245445,1,Esmee,69.19642857142857,60.0,-20.353205214444444,0.066331958179399,-0.0031008734769899,0.0754968803799,0.2074071201991,9.3428314185,118.0893326,0.010444237785249302,0.46228523233213253,0.0695427471743147,66.31264952108509
2.998916807812733,1,Esmee,66.40625,61.0,-18.38594859222222,0.0493448361135049,-0.0103253766764653,0.0420105366098217,0.2344344352873267,10.51238952,109.57595745,0.009013520280420632,0.5592322920435084,0.038631323467989476,67.20010849787442
2.827730130116044,1,Esmee,78.46467391304348,62.0,-19.109722694444443,0.03361017600391,-0.00221926392161,0.07299966906182,0.210393917706,9.280942965,97.92399497,0.01519670810563672,0.5235644639050404,0.051707579112838645,67.00036836187593
2.6883153812033966,1,Esmee,83.55978260869566,63.0,-19.52985863,0.1890367704547772,0.0584278088667029,0.069992491324901,0.2964165868948515,9.013255142,88.46244638499999,0.017809322679671682,0.502860025464676,0.1663174022088222,67.72104597684012
2.6612362464762325,1,Esmee,73.2421875,64.0,-19.098522542222224,0.00727975229741,-0.0374958755633,0.084845549101137,0.2530872999859,8.008788681,100.51659092,0.012518778167250876,0.524116411126363,0.06290551053085125,67.04301658110819
2.6855971480769383,1,Esmee,109.03532608695652,65.0,-19.13422117111111,-0.0241237912890257,-0.0161674325973366,0.0295746783640297,0.2005651903658415,8.3351092265,100.659281105,0.030872395549846506,0.5223571708384357,0.01723309912296777,67.0235987540419
2.6694319142790985,1,Esmee,146.7391304347826,66.0,-19.776255613333333,0.0986998866445544,0.0294792500646376,0.070509333087297,0.237755948270198,5.489553665500001,90.98256739,0.05020574339770525,0.490717500292268,0.09103777293816073,67.6210270549666
2.660177161075455,1,Esmee,131.8359375,67.0,-18.582293634444444,0.4172305047769999,0.13929710020107,0.092515482207033,0.48272644417,5.8377077105,74.62810893,0.04256384576865298,0.5495563431523829,0.378417339513728,70.47329174931147
2.6453548735848176,1,Esmee,151.04166666666666,68.0,-16.316311913333333,0.3387323530425742,0.0716320346756445,0.0511990423359405,0.4102200211475247,5.7828920230000005,79.32511991,0.05241195126022367,0.6612246749500379,0.2903400582584419,71.30565559067246
2.6442588784174585,1,Esmee,111.97916666666669,69.0,-17.10665410888889,0.260588324734,0.058429942551385,0.068296525471424,0.313637710619,5.540558423,72.891252,0.032381906192622274,0.6222763490634067,0.22454138771641025,69.9112854143446
2.6259449908723487,1,Esmee,78.125,70.0,-14.159106891,0.2009311447869307,0.0296000153311089,0.0775379584001683,0.2754471765613862,5.7260483685,81.3164892,0.015022533800701052,0.7675324549048411,0.17297560620722796,70.89464498452993
2.616182922005095,1,Esmee,90.625,71.0,-12.0891299343,0.1482517499164356,0.0035918305559042,0.083314034682803,0.2639438434151,7.792562587499999,91.007609815,0.0214321482223335,0.8695416068149158,0.1311065093965306,71.9119943213979
2.5957033297204077,1,Esmee,109.86328125,72.0,-13.33462096925,-0.0808499668033069,-0.0498104747999792,0.0575912937516138,0.1871269250591088,7.1326789585,97.436850825,0.03129694541812719,0.8081633949582008,0.07885101562843126,70.9547077728884
2.5797760140688566,1,Esmee,83.203125,73.0,-13.51381984888889,-0.0647246884264851,-0.0377526636492762,0.0555303354926435,0.2764609122119802,5.535526306,92.142640675,0.017626439659489235,0.7993324146537916,0.06309775616755438,70.44929981837572
2.592375489872334,1,Esmee,86.42578125,74.0,-14.681407586,-0.05107721870353,-0.049229031510513,0.0731317576626304,0.29637367974903,7.617876257,90.965983395,0.01927891837756635,0.741793303187939,0.07072909613527277,69.85293077488878
2.634824143170808,1,Esmee,103.125,75.0,-11.742194553888888,-0.0497615825269387,-0.0355819919353861,0.0584445298790098,0.259019060280099,6.5290592465,89.19130128,0.02784176264396595,0.886638697586282,0.05543345615488576,71.63996727315379
2.6527077489376194,1,Esmee,149.25986842105263,76.0,-15.82878566888889,-0.0455364603745407,-0.000303536276027,0.02397397593674,0.1937336933176,8.492323576499999,79.322176645,0.0514983000817015,0.6852501301942185,0.02609700639229104,69.46174361510298
2.6562820526019624,1,Esmee,99.91776315789474,77.0,-16.456113392333336,-0.0122622616179732,-0.0290550070754039,0.062867195912099,0.3840485771009901,5.826002067999999,90.624852175,0.026197190522626045,0.6543352116338377,0.04280089095199783,68.71837347767456
2.6532341707586187,1,Esmee,125.33967391304348,78.0,-20.36196964555556,-0.03590086129214,-0.0140124503179899,0.0699528662687,0.455554995748,10.5674498475,71.58688706000001,0.039232762186758405,0.4618533182561204,0.05123867876801911,66.73680449295277
2.6480033920768093,1,Esmee,164.0625,79.0,-22.110300777777777,-0.0299725701720079,-0.0107476903828702,0.0752124396825841,0.144716026260891,8.884771486,97.245166095,0.05908863294942414,0.37569497940181196,0.05283953140065259,66.11282866301545
2.6520372828137697,1,Esmee,111.0733695652174,80.0,-20.997034331111117,-0.0142107308100382,-0.009175161336882,0.0704283520466653,0.1188157126233663,8.646019282000001,95.912258765,0.0319174413794605,0.43055711963329235,0.04465745574457956,66.16229390914536
2.6326682392883627,1,Esmee,111.0733695652174,81.0,-23.503206006,-0.0176953877980397,-0.014382599529411,0.065658454729363,0.12310813776723,7.8183102825,94.674917505,0.0319174413794605,0.3070521471412156,0.04206775576265955,64.65951663938507
2.5749247862134683,1,Esmee,80.078125,82.0,-24.341877447777776,-0.0086353696159405,-0.0131697185499227,0.0593178665331297,0.10434643940099,8.280011953,95.82297718,0.01602403605408112,0.26572213994957056,0.034868993247692895,63.788098346458014
2.560616423892631,1,Esmee,93.75,83.0,-21.49928208111111,-0.17061154989659,-0.07097472858208,0.04709641016632,0.2324868658274,10.044192161,97.995066955,0.02303455182774161,0.40580618370600513,0.14933789324063357,66.52506838695196
2.58840560591,1,Esmee,71.2890625,84.0,-20.604828396666665,-0.1842828973781475,-0.068978165855198,0.0444157742997336,0.2357182882068316,9.5249903835,98.43601426,0.011517275913870806,0.449885158342747,0.15909857498177302,66.90175601824457
2.5853468120131287,1,Esmee,73.3695652173913,85.0,-22.17331055,0.11765033838993,0.006847519298297,0.07191651329314,0.1651891800557,9.608680773,87.58180151,0.012584093531601746,0.3725898368997993,0.10274910231457757,65.54475273194625
2.598059856224688,1,Esmee,76.171875,86.0,-21.07780756888889,0.1518310386618812,0.0139455601215792,0.0659112795335207,0.1847366599132673,9.864425754,88.042674895,0.014021031547320982,0.42657658764907297,0.1275751930972413,66.41994122751322
2.616151654832404,1,Esmee,82.54076086956522,87.0,-22.72248783333333,0.1132878151755742,0.0474927586422564,0.0729958702234059,0.1742735945158416,9.979376832,86.83722079500001,0.017286799764864687,0.34552619798353734,0.10702636483815088,65.34826128980495
2.6165467141910623,1,Esmee,79.1015625,88.0,-24.11800081,0.09234544481016,0.0419851104595919,0.089684213607208,0.1632838576084,9.0946247525,88.325309145,0.015523284927391086,0.2767548550135091,0.10039658947318185,64.43469667449538
2.6594931663236143,1,Esmee,72.35054347826087,89.0,-23.38291710555556,0.0760007916193069,0.0278239872607544,0.0693294633829307,0.1304682473374257,10.13781703,88.3757113,0.01206157061679476,0.31298002410565035,0.07487448907758268,64.59598761422436
2.765290092831409,1,Esmee,75.40760869565217,90.0,-22.79987149555556,0.12896760967104,0.042393086774928,0.07780450742674,0.1807205085899,10.126921883,79.834084115,0.013629139361215736,0.34171270540844606,0.11904657814612703,65.32550787729468
2.8250633033103765,1,Esmee,79.1015625,91.0,-23.929869826,0.2907199283485148,0.1031447697615841,0.0822552198891881,0.3265336062287128,9.8765793595,74.980920925,0.015523284927391086,0.28602601238737796,0.2631345616286256,65.84785434022537
2.812915308918708,1,Esmee,78.46467391304348,92.0,-24.83482107,0.223943104302,0.04429937117032,0.080930025459518,0.275949038452,10.046849675,73.15039774499999,0.01519670810563672,0.24142971452927295,0.1949331241311108,64.7605557295129
2.7930788725780413,1,Esmee,67.3828125,93.0,-24.113997252222223,0.1918458328316831,0.0458619209886039,0.0829197241041485,0.2467766435821782,9.905586729,73.489390845,0.009514271407110666,0.2769521516704657,0.16994319214367554,64.8732567853372
2.807721345018146,1,Esmee,74.38858695652173,94.0,-22.706147815,0.2868256744128713,0.0692600407253168,0.083870342427297,0.3238997431029702,10.36394024,65.214470825,0.013106616446408741,0.3463314395138755,0.25207353686743733,66.43469789803417
2.8719581445201805,1,Esmee,77.1484375,95.0,-24.60140327,0.264991419911,0.055637841528601,0.0964099675671199,0.295071374297,10.1313281685,66.91379417,0.014521782674011016,0.2529326212363482,0.23495777807024384,65.20528933287835
2.9158831216273224,1,Esmee,84.5788043478261,96.0,-25.741277412222225,0.0859061858808108,-0.0070832215174851,0.0838623994761782,0.1434075808344554,9.8963733,73.78777019,0.018331845594478677,0.1967592449309012,0.08699531240740133,63.423710350319595
2.833082371164352,1,Esmee,86.61684782608695,97.0,-24.755091187,0.024622305707953,-0.0289890480189,0.0868934603718,0.1009451660248,9.9266819415,72.09012176,0.01937689142409266,0.24535882964352304,0.06450432768310783,63.84787840566899
2.646643200885258,1,Esmee,86.9140625,98.0,-26.03703955,0.0206893616258732,-0.0206928591001485,0.0842408937975643,0.095037803250396,10.097394345,72.16047689999999,0.019529293940911366,0.1821839885522409,0.059481307574002135,63.052644202037136
2.5935872542627267,1,Esmee,343.4103260869565,99.0,-25.71225009,0.009382068744791,-0.0179421768440275,0.08501207195416,0.0962074040093,10.302488415,73.38194476999999,0.1510526659554549,0.1981897210106108,0.05789828683247919,65.86251626589626
2.622335672107114,1,Esmee,138.671875,100.0,-20.065308904444446,-0.3296908778353158,-0.1425969237528316,0.0550448081750629,0.3781245308792079,10.257121054,96.650836415,0.04606910365548322,0.4764728581054932,0.3022115864514927,69.05674906198753
2.6263380307767057,1,Esmee,136.54891304347825,101.0,-22.52266073555556,-0.595420215,-0.2095850794950495,0.0449707966404158,0.6366222680326732,10.497580195,106.4954099,0.04498051424963532,0.35537374372890573,0.5406994539658275,69.4896908414662
2.6555714849217766,1,Esmee,99.609375,102.0,-23.688105597,-0.449394925101,-0.1326349990429,0.04443169950787,0.472130628118,13.851282165,119.3782686,0.026039058587881823,0.2979402338876019,0.3971544867858169,67.27329987269539
2.6721692661360503,1,Esmee,104.95923913043478,103.0,-24.44396658333333,-0.3396850585970297,-0.0913979595715841,0.0480315650922673,0.3576708924148514,16.15789042,21.45254360000001,0.028782303890618536,0.2606911534433936,0.29480272246769185,66.06236169887462
2.69710383101549,1,Esmee,120.1171875,104.0,-26.352329136666665,-0.265677856538,-0.059293017894977,0.0526286480080379,0.2832589748719999,7.988941936,140.86458585,0.03655483224837256,0.16664641300685004,0.22595885717783995,64.53852445847237
2.715619390671129,1,Esmee,116.16847826086956,105.0,-26.405404946666668,-0.2048647336455445,-0.038719784431693,0.0508226900647505,0.2186499852792079,8.7805343025,95.946934975,0.03453005595349546,0.16403081946243106,0.1704965230484939,64.02294313700703
2.7343367313298605,1,Esmee,78.46467391304348,106.0,-25.946157007,-0.1622562324843,-0.031077109193473,0.05599109521591,0.1869225164239999,3.7774435075,123.21437825,0.01519670810563672,0.18666271045532942,0.13494782939660743,63.62346932274955
2.7371268578580352,1,Esmee,81.0546875,107.0,-26.810469355555558,-0.1261471628568317,-0.0206126277755643,0.0539535208990792,0.146561528909901,3.2669333835,128.55078435,0.016524787180771158,0.14406911086177832,0.10335187336668872,62.88614006089027
2.734327861036153,1,Esmee,126.3586956521739,108.0,-27.826986267777777,-0.0956035676640594,-0.0214992625048495,0.0586202184466138,0.1244758020771287,8.2981087855,116.98192215,0.03975528510156539,0.09397481982032273,0.08161766405251869,62.57574485229533
2.7454479825564864,1,Esmee,148.4375,109.0,-26.48996645,-0.073165977169,-0.012646084655874,0.0598673080253419,0.1015922494427,7.9428609305,91.414382635,0.05107661492238358,0.15986360049346918,0.06497047778050964,63.45965932661338
2.760539825629538,1,Esmee,163.04347826086956,110.0,-25.654584612222223,-0.0593171178122772,-0.0116391505127821,0.0574804340145445,0.0865730636272277,7.6328274645,89.11562126999999,0.05856611003461714,0.20103149490744598,0.05437947336317246,64.01873592648707
2.7587401230454303,1,Esmee,100.5859375,111.0,-28.53129023888889,-0.0475285789722,-0.01054983299398,0.0603487268321999,0.0796136574577,7.760822209,88.759745855,0.026539809714571858,0.059266486209459825,0.04917829829361716,61.635420415153895
2.76194074570603,1,Esmee,119.22554347826087,112.0,-27.152327586,-0.0387278567820297,-0.0089130063428207,0.0575898869446039,0.1152073666760396,8.581798747,84.84583667,0.03609762469791644,0.1272222237270003,0.04247940980178491,62.58845445709661
2.770555536968765,1,Esmee,127.37771739130434,113.0,-25.908277902222224,-0.03683798275782,-0.00990780432998,0.05658037760701,0.1353176743677999,8.929873224000001,82.970820175,0.04027780801637238,0.1885294053192442,0.040946543084802986,63.395481368836805
2.7696609350369736,1,Esmee,1573.2421875,114.0,-27.051057751111117,-0.0325413004939485,-0.0074442726104485,0.0607773257710891,0.0885200593943564,8.0082814905,86.93633424999999,0.7816725087631448,0.13221283482421614,0.041922519948567875,77.55538435274204
2.7563695133912214,1,Esmee,1804.6875,115.0,-25.358116451111112,-0.027724426835516,-0.0096012435836047,0.0598884983361,0.0712482175089,9.0477641215,82.190851635,0.900350525788683,0.21564154435045862,0.039574925741672776,80.91130845391254
2.716550892880209,1,Esmee,1495.1171875,116.0,-23.286993964,-0.0250410445917554,-0.0056916710319023,0.0590970907234158,0.0688107201795049,8.883481481,83.25724106999999,0.7416124186279419,0.31770714837964814,0.03757984507519502,78.94537291371617
2.733382868495608,1,Esmee,1425.6114130434785,117.0,-21.38552304888889,-0.0201362372779435,-0.0048078557022029,0.0622128172145544,0.068826396320792,8.808515168,82.15466689499999,0.7059720014804817,0.41141226659573926,0.038581439869979486,79.36503874771834
2.72125191021735,1,Esmee,1625.9765625,118.0,-20.46933636888889,-0.021140156220312,-0.0060252414421748,0.0620272636415,0.067693440191,8.270199741999999,81.85734178999999,0.8087130696044066,0.4565622504714544,0.038794169379495785,81.96336175278155
2.699554127096974,1,Esmee,645.0407608695652,119.0,-23.381417157,-0.0176193823601099,-0.00659049373279,0.059492802490099,0.0649506212022772,7.915067016,84.9038433,0.3057194487383249,0.31305394206863346,0.03577476042057832,70.15723436295472
2.700960179315496,1,Esmee,171.875,120.0,-21.80949039333333,-0.0180416618285009,-0.004631962510669,0.0623897383871,0.0676167815687,8.2198561475,85.903237235,0.06309464196294441,0.3905190150528372,0.038177854905948654,66.25354385914052
2.699561175358709,1,Esmee,122.28260869565216,121.0,-29.34858404111111,-0.0139074068587148,-0.006178364895593,0.0606606998711881,0.0651317136247524,8.694568245,82.34235659000001,0.03766519344233741,0.01898997619508678,0.03590255646145112,61.268404034879396
2.7023803982492307,1,Esmee,102.9211956521739,122.0,-27.444507872000003,-0.0129425308153016,-0.00829016188665,0.0617707696796,0.065841379836,9.004019784,80.171824585,0.027737258061004546,0.1128234821935586,0.03688844369478976,62.20373449710111
2.7052373368083837,1,Esmee,126.953125,123.0,-27.703464466666667,-0.0115507026912445,-0.0083790745032732,0.0606000046155445,0.0644256636069307,8.457061527,84.44357299,0.04006009013520281,0.1000620152033269,0.03565203734739155,62.28716228392311
2.711836051975022,1,Esmee,104.95923913043478,124.0,-28.04767297,-0.0123725668442415,-0.0078375282573575,0.0610157995412871,0.0651189646873267,8.917259624,86.51418109,0.028782303890618536,0.08309930584000796,0.03608713717298397,61.86153484527634
2.736202089282246,1,Esmee,120.1171875,125.0,-28.315755875,-0.012026441508857,-0.004790914683079,0.0598600048539,0.0627033176079,8.235411908500001,82.77328732999999,0.03655483224837256,0.06988809124550537,0.0347548474108563,61.84779251920037
2.786273042019727,1,Esmee,97.82608695652172,126.0,-27.65715395555556,-0.0153267384028136,-0.0056132040034919,0.0613384558470594,0.0662385494992079,9.174185368,82.882916115,0.025124643486969574,0.10234421257159965,0.0367280160642397,62.0244475491125
2.721956140663792,1,Esmee,107.421875,127.0,-29.034386186666666,-0.0106794898846912,-0.0034402224855496,0.0619454084697,0.0649533577801,8.031738523,87.45043372,0.030045067601402103,0.034473750813978805,0.03626800502194066,61.30473040197131
2.8703925775943087,1,Esmee,121.26358695652172,128.0,-27.570942019,-0.0124106676411693,-0.004227018771994,0.0605526826938613,0.0635648822492079,8.187354494000001,85.31193221,0.03714267052753042,0.10659276543789731,0.03538503244153362,62.30504685533764
2.868052686490396,1,Esmee,130.43478260869566,129.0,-26.848474906666667,-0.0137482285271407,-0.006840717525621,0.0613664347177,0.0652544276878999,8.2482895415,85.08053548,0.04184537676079336,0.1421961846805614,0.0365382143886175,62.83556746649155
2.598890343055952,1,Esmee,108.3984375,130.0,-28.33721172,-0.0133741865634752,-0.0020746702692524,0.059690687320099,0.0633209929990099,8.337541581,82.17182224999999,0.030545818728092138,0.06883074007795753,0.03472118260482722,61.71465471633595
2.629497583284249,1,Esmee,142.66304347826087,131.0,-28.673117201000004,-0.0136357494170059,-0.0013672729618461,0.0621169170886138,0.0651551264070297,9.0306532245,92.68418856,0.04811565173847728,0.0522772064128375,0.03684984630347516,61.8844382821514
2.6183057647175803,1,Esmee,164.0625,132.0,-26.579860027777777,-0.0122160612301002,-0.002111318475085,0.0622106791024,0.065211006534,9.523458233,97.384500335,0.05908863294942414,0.15543361512498846,0.036693387760252945,63.34052314257037
2.656956104163288,1,Esmee,112.09239130434784,133.0,-28.05515170888889,-0.0117092877918306,0.0030211940924311,0.0615389111369306,0.0643157309541584,7.057928908999999,96.72449285,0.032439964294267494,0.08273075110371339,0.0360577710218965,61.93003046730508
2.743444574964879,1,Esmee,120.1171875,134.0,-28.701914013,-0.011980133387764,0.004101451943485,0.0638086529729,0.0666811481635,7.940350288499999,94.549598575,0.03655483224837256,0.05085808995343666,0.03812653682685124,61.6464060190235
2.7624389190515912,1,Esmee,175.27173913043478,135.0,-26.83282279111111,-0.0110230728916108,0.0031382947171898,0.0616091471970297,0.0642623032437623,7.8736837325,93.10487739,0.06483638501230106,0.1429675261335437,0.036013799162916596,63.300448407151876
2.744081712609852,1,Esmee,114.2578125,136.0,-26.53715174,-0.0102865213612239,0.0069217847853175,0.0640810864451,0.06764286537,8.111749893,93.842632465,0.03355032548823235,0.1575382937310189,0.03831820607758863,62.86801168315758
2.7341515300346035,1,Esmee,98.84510869565216,137.0,-28.469664067000004,-0.0082783250961993,0.0087341698309415,0.0637237608960396,0.0666030137067326,8.9207801,93.57033294,0.02564716640177657,0.062303444427522156,0.03794694975789356,61.56416025922895
2.748838293528239,1,Esmee,122.28260869565216,138.0,-27.305888204444443,-0.0060202726114403,0.0114562759481324,0.0634898259564356,0.0674137668116831,9.187210983,91.56538389,0.03766519344233741,0.11965470544927163,0.03789856881525412,62.49234888476004
2.7360537363594712,1,Esmee,88.8671875,139.0,-27.34598083111111,-0.0031364793661017,0.0111098939266096,0.065971690071,0.0798573995355,9.3574015455,89.38961570000001,0.020530796194291438,0.1176789274915141,0.03982704460851097,62.141379410652085
2.705195022746602,1,Esmee,128.39673913043478,140.0,-28.293280889,-0.002242818606391,0.0106366005217167,0.065009714140495,0.0718628001627722,9.01968666,92.08843601,0.04080033093117938,0.07099566602001206,0.038887169670649285,61.97905196822893
2.656890656734457,1,Esmee,134.765625,141.0,-28.46846603,-0.0022432835539939,0.0151444756506762,0.06462427523818,0.0787750826274,8.2884054335,88.478190385,0.04406609914872309,0.06236248408877629,0.03933036030731821,61.94431467449832
2.6513658268962086,1,Esmee,110.05434782608695,142.0,-27.07819225333333,-0.0036486757739366,0.0166035538352693,0.0654495405438811,0.0754047310949505,8.514187343,85.28542945,0.0313949184646535,0.13087563754275322,0.04039986672336502,62.52160495359303
2.644289495624046,1,Esmee,90.8203125,143.0,-28.60985011875,-0.0042274638263872,0.014507617386955,0.0671296024923,0.0720854365448,8.8118238765,87.46105364,0.021532298447671506,0.05539502923847738,0.041451521683389565,61.42699849328228
2.647831657700635,1,Esmee,146.7391304347826,144.0,-28.454280683,-0.0025641421026069,0.0175876214143584,0.0666632430450495,0.0707185460560396,8.328796582999999,97.24266592,0.05020574339770525,0.06306154270019523,0.04161314386017568,62.09375853123785
2.6386657358741465,1,Esmee,100.88315217391305,145.0,-25.390017774444445,-0.0004138209477806,0.0180379366226534,0.0670041762414851,0.0719466488397029,7.975941129000001,98.391321035,0.026692212231390566,0.2140694365414759,0.04196629722551536,63.438407860929644
2.6200663709470864,1,Esmee,74.21875,146.0,-25.599567526666664,-0.0030737009185688,0.018324937042331,0.06556899817654,0.071533858083,8.230079134,95.37593393,0.013019529293940912,0.20374275515598214,0.04086868854872532,63.032253156140406
2.645143466418961,1,Esmee,69.29347826086956,147.0,-25.3051669,-0.3423362270606732,-0.1081437020590613,0.0433310173772188,0.3852360101455445,9.2713992385,122.7647114,0.010494001872373777,0.21825091581489978,0.30063279435768847,65.23395338208778
2.636525791731991,1,Esmee,82.03125,148.0,-25.58890557333333,-0.590892847109,-0.1919843636265,0.02648290507841,0.6238271915579999,9.931696873,124.95890135,0.01702553830746119,0.20426817975731296,0.5309921958827777,67.0396664902992
2.6385317967336834,1,Esmee,69.29347826086956,149.0,-25.490058387,-0.5841793894039604,-0.1691566083861386,0.0290426570002376,0.6095821146990099,9.8312644405,126.6698036,0.010494001872373777,0.2091394019290975,0.5194914751049454,66.8754846614362
2.6309049505757582,1,Esmee,72.54464285714286,150.0,-22.631600877777775,-0.542837035666,-0.139345450839,0.03440989347613,0.562231753439,9.8398200395,125.7387051,0.01216109879104371,0.35000513733882915,0.47755414849609384,68.26371681185557
2.6426217806814973,1,Esmee,78.46467391304348,151.0,-23.61634146,-0.504412282450495,-0.115483169120792,0.040423903329594,0.5203638058782178,9.956239241,125.1775551,0.01519670810563672,0.30147679439337627,0.43997711336710127,67.44147260177006
2.6329378255672955,1,Esmee,79.4836956521739,152.0,-24.309314885555555,-0.469312226630693,-0.0965932685753465,0.0479151128718495,0.4830446514217822,9.6141353235,124.7050137,0.015719231020443706,0.26732683383060935,0.4067832764386305,66.77657283788523
2.6354703950897203,1,Esmee,73.3695652173913,153.0,-23.41810700222222,-0.430881561169,-0.0813372328625,0.0518537340569549,0.4436811638089999,9.584655053,123.60057595,0.012584093531601746,0.3112458543105952,0.37138345303367115,66.95769974662855
2.6241860676571926,1,Esmee,73.2421875,154.0,-22.461013681111112,-0.3976876898584158,-0.0650621335615841,0.0526220462087326,0.4094830290792079,9.7660068445,123.6061797,0.012518778167250876,0.35841173104624174,0.34026944304874435,67.27347188028988
2.6097780766905663,1,Esmee,82.72058823529412,155.0,-23.12761944555556,-0.418686585541,-0.07025378589339,0.05691240590338,0.43170714009,10.51034985,129.6591753,0.0173790096910071,0.3255611775802979,0.3596912812405895,67.13184457470844
2.672102485773437,1,Esmee,76.171875,156.0,-23.393327170000003,-0.7927492203970297,-0.2178367136415841,0.0231731756125396,0.8250407373326734,13.1527603,144.31559155,0.014021031547320982,0.3124670126724217,0.7085528041818776,69.6984472164705
2.7130821664174047,1,Esmee,87.05357142857143,157.0,-21.584422035,-0.770499607208,-0.201368983953,0.041852966308257,0.803464603581,12.6533133,141.473956,0.019600829816152802,0.40161045850154964,0.6864391653808516,70.70285542138846
2.748580333130417,1,Esmee,74.38858695652173,158.0,-21.73138506555556,-0.7086515417702971,-0.1824029095425742,0.0407022018464603,0.7391147338980198,12.679442665,141.6956208,0.013106616446408741,0.3943680715461861,0.6292607006532812,70.02863479270866
2.75722606128128,1,Esmee,67.70833333333333,159.0,-20.572177,-0.583996494794,-0.1091608650242499,0.0602156149680399,0.604833047346,12.23673731,138.26951865,0.009681188449340676,0.4514942300147119,0.5091214753259008,69.68452633177057
2.7529388706120206,1,Esmee,67.3828125,160.0,-17.565245725,-0.4635383099514851,-0.0653432760801475,0.0638176926555544,0.4858029778435643,10.88589079,137.1485641,0.009514271407110666,0.5996768019133053,0.39873893829476365,70.57631855745998
2.8328683773646586,1,Esmee,66.96428571428571,161.0,-15.036842698888888,-0.3309999109425742,-0.0490114093587326,0.0607521248516732,0.3580417664118812,11.118208425,134.59377365,0.009299663781386362,0.7242773427771237,0.28156858587527467,71.12987007595541
2.910871285324289,1,Esmee,96.50735294117646,162.0,-16.561114277777776,-0.254686840346,0.00804606109728,0.1051507831328899,0.3069049197189999,10.274285005,125.36350695,0.024448437361925236,0.6491607331260817,0.22454470218055145,70.0752551621959
3.1585248020962475,1,Esmee,92.51644736842104,163.0,-16.9122116,-0.2853164950217822,0.1589057098959702,0.1106463349643564,0.3901900730386139,8.213062888,137.0493765,0.02240202408876472,0.6318585404799932,0.2857627519066117,70.31644498278811
3.1502313822521737,1,Esmee,89.84375,164.0,-17.752055462222224,-0.10149320210157,0.3426701223129,0.1639166862325949,0.473243104196,7.161419863,114.53425145,0.02103154732098147,0.5904707560194598,0.32857331390956973,70.1348665299297
2.893451767253473,1,Esmee,69.19642857142857,165.0,-18.49926942555556,0.4344192928752475,0.5061111971049506,0.148927783743495,0.6976294332792079,7.749511702499999,94.11026946,0.010444237785249302,0.5536478037405537,0.5854703233920866,71.53642098772832
2.849552881859978,1,Esmee,73.66071428571429,166.0,-19.632835419,0.501957118406,0.367510051884,0.128131393144,0.8045955969140001,6.0738911,112.69462115,0.01273338579297518,0.497785295101948,0.542771849612845,70.57026605398563
2.8570309949341417,1,Esmee,75.52083333333333,167.0,-20.85059984333333,0.5587238472435644,0.180248058604,0.1381122410500099,0.7204672370237624,8.694774748,89.86752634999999,0.013687197462860956,0.43777345982502663,0.514389072457878,69.64213804682056
2.837165413286057,1,Esmee,71.69117647058823,168.0,-21.639304386666662,0.5610514703831683,0.0566669285570396,0.0825553441552079,0.5999437320148515,8.805789257,96.18724868,0.011723467554272584,0.39890583798380624,0.48501154966769533,68.90143180423269
2.8447424655456808,1,Esmee,79.24107142857143,169.0,-20.232670502,0.548461254599,-0.051098418514148,0.0988406258779,0.5974555969650001,9.6987886115,90.12352104,0.015594820802632522,0.46822522299356684,0.4759095816267642,69.73787574498957
2.842572062651485,1,Esmee,70.3125,170.0,-23.39978679,0.4675957565782178,-0.010252593318396,0.0648063641900891,0.5097423370336633,8.962746931,92.786455035,0.011016524787180772,0.312148680453443,0.39849583651736303,67.15408135332383
2.832294582865808,1,Esmee,82.03125,171.0,-23.742978122222222,0.384524470753,0.08361243271569,0.09085671483337,0.430693158644,8.750000563499999,92.62112968,0.01702553830746119,0.2952360976203041,0.33802708928212793,66.5875606518499
2.830662901012606,1,Esmee,67.2554347826087,172.0,-22.88651431777778,0.3202139060940594,0.1370687012122287,0.0920712765848811,0.3722356794792079,9.45406127,89.88164268,0.009448956042759795,0.33744291835338897,0.2994497547313692,66.63389217894682
2.827947397924917,1,Esmee,74.38858695652173,173.0,-23.639498625,0.284395342205,0.15190542062254,0.088192191284762,0.359079948113,9.1250285885,88.722281915,0.013106616446408741,0.30033560161118333,0.2764230491198653,66.0775439412213
2.838273519044818,1,Esmee,70.3125,174.0,-22.406336758888887,0.2320480800079207,0.1640360366433267,0.0984798075702475,0.333330548809901,8.397297351999999,92.01315201,0.011016524787180772,0.36110622793273567,0.24675866657925735,66.5276745635705
2.8355611897779816,1,Esmee,67.3828125,175.0,-22.369320193333333,0.1996612502198019,0.1708009279271287,0.0876958977433069,0.3043720305178217,8.861779676000001,88.05346056,0.009514271407110666,0.36293041657731145,0.2257320505134096,66.35130683117723
2.827393293447861,1,Esmee,70.3125,176.0,-23.536954413333333,0.1718931269059,0.1562607966762,0.0946285314568399,0.265921273931,8.9446926145,91.42117479,0.011016524787180772,0.3053890144192565,0.20257507175739922,65.50559924283388
2.817023947485909,1,Esmee,70.3125,177.0,-23.1280541,0.1575544044255445,0.1233653808181881,0.0797369804167594,0.2572636962772277,8.843155457,87.42481893499999,0.011016524787180772,0.3255397576649178,0.17121425053821568,65.49652159202836
2.818556386965079,1,Esmee,70.3125,178.0,-22.677385265555557,0.1413721986597,0.093548655972996,0.07206578685935,0.230699326188,8.660656617,91.41474148,0.011016524787180772,0.3477488675031594,0.1435937285871265,65.54206673447854
2.824108352552384,1,Esmee,91.796875,179.0,-23.34048750777778,0.1349201503245544,0.0436327872544683,0.070037271732995,0.2089343950356435,9.33047707,90.743215575,0.022033049574361543,0.31507096877592194,0.12053521304102593,65.18579432112651
2.813726760838936,1,Esmee,201.3494318181818,180.0,-21.680522243,0.1301030848643,-0.006979536274333,0.032328694010728,0.1751590653481,9.6130804295,88.80714336,0.07820822142304365,0.3968746083343622,0.09936904359533828,67.12161207723592
2.806561421246513,1,Esmee,132.421875,181.0,-21.609644597777777,0.1359356776265346,-0.0466580324247326,0.0328575715374006,0.1956715455576237,8.6259855315,89.32604262000001,0.042864296444667,0.4003674822309048,0.1110418131460726,66.55003022083278
2.8131818320758897,1,Esmee,138.02083333333334,182.0,-17.80342146222222,0.1475242585875247,-0.1074167411856247,0.0365285345775643,0.2158707569623762,8.550933375,89.38154299499999,0.0457352695710232,0.5879394224797058,0.14527930416151175,69.13221289446903
2.804929811157239,1,Esmee,162.59765625,183.0,-20.152787344,0.1489128043224,-0.15483323552327,0.0576503596008899,0.2457868549245,8.46300542,88.84225664,0.058337506259389084,0.47216189155072297,0.17742393560703879,68.25208430865277
2.8054747043323283,1,Esmee,96.50735294117646,184.0,-16.97622205,0.1213820937335643,-0.1254877073384158,0.0579600272731881,0.2042830876187129,8.152645386500001,94.79819608,0.024448437361925236,0.6287040842447451,0.1433754561450653,69.18042140733597
2.826899520017999,1,Esmee,90.40178571428572,185.0,-19.65021157,0.10417021091647,-0.062099997154889,0.0583485990119699,0.1916534804527,7.975484066,97.916383145,0.021317690821947212,0.49692899260967427,0.09967108587667042,67.18687041476839
2.8135494970706123,1,Esmee,105.46875,186.0,-17.926659905555553,0.0606796779033425,0.0148617377656623,0.0535212379837267,0.1333761276224752,8.6341350195,97.443243835,0.02904356534802203,0.5818661910620997,0.05336131366089241,67.99015610899278
2.817346535690052,1,Esmee,71.3778409090909,187.0,-19.41197675333333,0.054493827391045,0.06756506510827,0.0552152690985,0.1778147037954,8.6188412905,95.68680159,0.0115627987435699,0.5086692834979177,0.07160537896741295,66.90813040858572
2.806772864094472,1,Esmee,67.70833333333333,188.0,-21.145729686666662,0.0797811187529604,0.0030962483151584,0.06096918970482,0.1936640713952475,8.541690506,93.3525556,0.009681188449340676,0.42322936312658715,0.06946582642787687,65.82810273792887
2.801801579359911,1,Esmee,74.77678571428571,189.0,-20.48547046333333,0.1232540763852475,-0.1216661350769108,0.0542601986732871,0.2100019881275247,8.213624142,96.54143177,0.013305672794906643,0.4557671569387524,0.14119128053974567,66.86484958348113
2.803948428778824,1,Esmee,71.69117647058823,190.0,-16.957545007,0.161829863384,-0.2281330662792,0.03977463197624,0.3023078303556999,8.272230979,94.55647224,0.011723467554272584,0.629624495126833,0.2306164793754742,69.63489512761124
2.802849220592919,1,Esmee,70.3125,191.0,-16.177232954444445,0.1953172078910158,-0.289013530270396,0.0522836313668811,0.3815924233841584,8.38452017,93.336882465,0.011016524787180772,0.6680785322351979,0.2927574490270771,70.5793324747826
2.7889388351267805,1,Esmee,70.3125,192.0,-17.885861384444446,0.17849965595663,-0.2644804434294,0.02374105794996,0.3539168053205,8.3768735365,95.57225324,0.011016524787180772,0.5838767557325221,0.26376161985066254,69.33694452333918
2.743024980048157,1,Esmee,67.1875,193.0,-16.807084957999997,0.1730322134774554,-0.210453844760198,0.0664474865733564,0.3430347580643564,7.3394854925,92.470232535,0.009414121181772659,0.6370392163125738,0.22877780486503863,69.66297545830665
2.763648689529519,1,Esmee,68.84765625,194.0,-19.680282095555555,0.19936102834993,-0.2139650054759,0.0528151975741,0.381847734761,8.0639177485,96.16806285,0.010265398097145719,0.4954471071232278,0.2435949470019346,68.09943282343713
2.426631942792066,1,Esmee,74.77678571428571,195.0,-18.81684924111111,0.2672034090165346,-0.1501392486709406,0.063099469311693,0.3681304269475247,8.100826138,80.887936355,0.013305672794906643,0.5379973649548843,0.2575312748830014,68.78233203442076
2.0582056984682056,1,Esmee,82.03125,196.0,-18.956069027,0.7094155977267327,0.1005054900426534,0.0992410340014455,0.7361506459722772,8.851974592,62.53493746,0.01702553830746119,0.5311365676683925,0.6208153540208519,71.68067241033674
2.315084234657156,1,Esmee,73.2421875,197.0,-21.09098242,0.614641444866,0.10914724539635,0.09924654543215,0.653612380445,8.116554986499999,67.726137225,0.012518778167250876,0.42592732661066585,0.5400511813465393,69.68191293344532
2.485565037707975,1,Esmee,115.88541666666669,198.0,-20.01102724333333,0.435614586780198,0.088565954741198,0.1100583771676435,0.4850326936227723,7.866106899,68.84487891,0.03438491069938242,0.4791478763931569,0.38590168638854505,69.5246862218139
2.445401855207888,1,Esmee,75.0,199.0,-19.57133917,0.358649192791,0.16594786861783,0.09130047757145,0.426632420119,8.554235273,68.73395907,0.013420130195292939,0.5008158506768958,0.33955656854020827,68.99464536035028
2.347255866670256,1,Esmee,72.35054347826087,200.0,-22.613473387,0.633407436660396,0.3598450803980197,0.1246788362353069,0.7477923658564356,9.534217319,50.24723913,0.01206157061679476,0.35089846610488773,0.6347472588979137,69.52999107677786
2.225417871342698,1,Esmee,70.3125,201.0,-22.437682782222225,0.56208931955,0.393070554303,0.12125491551255,0.714776132297,7.729306701,65.7428864,0.011016524787180772,0.35956148549217976,0.5970827721727546,69.31173049903181
2.428974058574546,1,Esmee,74.44852941176471,202.0,-23.04035106888889,0.3154505574376238,0.3353162075841583,0.1130019234202871,0.4907688223405941,9.092141804,64.398667265,0.013137353088456215,0.3298617921661376,0.4001466388704925,67.42226167872671
2.7725297527795667,1,Esmee,73.50852272727273,203.0,-23.219104036666668,0.264145977583,0.307868607179,0.11691706502027,0.429920537557,8.672220548,65.84708121,0.012655346656348161,0.3210527865463408,0.35423018397375605,66.9395818434731
2.4646452336145117,1,Esmee,83.55978260869566,204.0,-23.457291906,0.2252115672069307,0.2713404780009901,0.1089178864384465,0.3787077223386138,9.5810319585,65.572108105,0.017809322679671682,0.3093148092382764,0.3072256580303544,66.52576942869558
2.5357601788255173,1,Esmee,75.40760869565217,205.0,-25.301747072222224,0.2302407222980198,0.2415105976118812,0.1060826815667369,0.3695239664891089,9.871807115,64.452685495,0.013629139361215736,0.21841944606358699,0.2904659784199197,65.21734396734672
2.827454651053809,1,Esmee,65.10416666666667,206.0,-23.612285803333336,0.2039650610894,0.2112069140588,0.10628039503056,0.323297852702,9.553540639,59.948761715,0.008345852111500587,0.3016766585008804,0.2569431768988422,65.84258235943132
2.824549913867916,1,Esmee,72.54464285714286,207.0,-25.480774206666663,0.3243844521980198,0.2251639102346534,0.1095155529278218,0.4126845992772277,10.28149081,54.805460965,0.01216109879104371,0.20959692941940053,0.3432627882794279,65.5044874350891
2.73477461934664,1,Esmee,85.9375,208.0,-24.571941247,0.410620700926,0.2396409560569999,0.11437094759637,0.493031638439,10.5750331,53.4584136,0.01902854281422133,0.25438451951476,0.4133843567113662,66.74025994415247
2.623493028079273,1,Esmee,78.46467391304348,209.0,-25.359404824444443,0.2737119936118812,0.1801856554990099,0.1078322784863663,0.3472667211435644,10.49416108,52.88227717,0.01519670810563672,0.21557805288469556,0.28590876567455015,65.17814092212548
2.5453372520317807,1,Esmee,114.1304347826087,210.0,-26.72359185222222,0.244221886994,0.1522115442918,0.1073066690869,0.3085623172109999,10.571900915,51.653543765,0.03348501012388148,0.14835046307993388,0.25240120866901394,64.46911542878895
2.518842423475471,1,Esmee,470.703125,211.0,-27.160650295,-0.0100645894164356,0.0506265261114158,0.0909827623951386,0.1421434675966336,9.4153559065,63.803283065,0.21632448673009513,0.1268120778633294,0.07313637161986665,66.43332564192079
2.513194192985047,1,Esmee,1263.5869565217392,212.0,-25.454110828888886,-0.4238090301477831,-0.1140593503949208,0.0601562414715841,0.4588092370654456,7.7589153225,86.42736239999999,0.6228908580261697,0.21091090953177097,0.3726632774879393,77.97005429480816
2.5522238529442856,1,Esmee,106.4453125,213.0,-21.845742864444443,-0.656489303451,-0.2007813811719999,0.039184963666546,0.688962139845,9.074303845,101.59447213,0.02954431647471207,0.3887324812362557,0.5892011241147914,69.96928509724765
2.5656352467039856,1,Esmee,111.0733695652174,214.0,-23.446462144,-0.5625507901841584,-0.1586018703316831,0.0413648592723128,0.5865755901623763,8.562720066,100.191440755,0.0319174413794605,0.30984850350643334,0.4991970442596516,68.35010722374362
2.720823408793553,1,Esmee,102.5390625,215.0,-25.530986976666668,-0.4838772608259999,-0.1242039148691,0.0428506942570559,0.502250432099,8.8224084035,95.020812635,0.02754131196795193,0.20712242743705866,0.424361441055267,66.43118689704588
3.1423598718342443,1,Esmee,88.65489130434783,216.0,-24.765890523333333,-0.4169136117287129,-0.0935505020149504,0.0467312311710287,0.4306757831178218,8.554037821000001,103.289474345,0.020421937253706647,0.24482663476232444,0.3610109148225531,66.23444568080245
2.911218700172234,1,Esmee,83.0078125,217.0,-26.555102594444445,-0.359031736102,-0.0708579085222999,0.04363306925285,0.3699154915079999,8.198357909,100.020343875,0.017526289434151226,0.15665366966213146,0.30676900389726725,64.68452185580674
2.956855847075773,1,Esmee,126.3586956521739,218.0,-28.097824978,-0.3103992249059406,-0.0526243098362475,0.0485197554952145,0.3224132327990098,8.4044028915,100.04684978,0.03975528510156539,0.08062779822920682,0.26250770738848633,63.86270093988968
2.8888401583827954,1,Esmee,123.3016304347826,219.0,-26.60281444555556,-0.2701423386435643,-0.039239190860792,0.0494665181291287,0.2817025280287129,7.144364232,102.5280396,0.03818771635714441,0.15430241379324314,0.22610786359109555,64.42424620139057
2.8260670285497924,1,Esmee,78.125,220.0,-26.37963634888889,-0.2339499328779999,-0.0288324581218879,0.050651932436245,0.2454627629279999,8.4296924105,100.11964663,0.015022533800701052,0.16530070451922585,0.19395673357027887,63.83571299880696
2.983573174888584,1,Esmee,103.94021739130434,221.0,-28.78542896777778,-0.2011696984297029,-0.0185781064565247,0.0516963451324059,0.2153094809821782,12.004079595,95.76358159,0.02825978097581154,0.04674244524487373,0.16513111413808543,62.4471538755594
2.9025759947221488,1,Esmee,146.484375,222.0,-27.216412271000003,-0.179562215364,-0.0101012828483996,0.0524784564254,0.191522807431,12.342737485,89.534532945,0.0500751126690035,0.1240641091662969,0.14637555909574715,63.66127603614161
2.8848327427625486,1,Esmee,86.61684782608695,223.0,-28.193788532222225,-0.1585765252217821,-0.004211179186491,0.054039388127891,0.1702035617851485,11.50261953,89.522554025,0.01937689142409266,0.07589868240557375,0.12888311052348073,62.32938690153659
2.9064659641360326,1,Esmee,116.2109375,224.0,-27.68059719,-0.1366066786105,0.0028893051357526,0.054937555593127,0.150987498521,10.764275355,89.974167515,0.03455182774161242,0.10118892219217496,0.11089994345687271,62.79250316879333
2.85771659187953,1,Esmee,425.95108695652175,225.0,-27.409196255,-0.1206197733913861,0.006943251621892,0.0546775509279603,0.1358794492996039,11.095171515,88.9800937,0.19337702205482138,0.11456365040706668,0.09793047582710568,66.02574805259808
2.837903955982942,1,Esmee,1850.5434782608693,226.0,-27.65094988888889,-0.1053001918587128,0.0096787759411116,0.0572831223274851,0.1226039992295049,11.31345055,89.88952177,0.9238640569549975,0.10264995103743733,0.08699611602396844,80.40504947974094
2.830173452728776,1,Esmee,1748.046875,227.0,-24.590240228888888,-0.0924325967356,0.009008007011076,0.05508863010413,0.1105479717276,11.268556595,90.233263725,0.871306960440661,0.2534827396097899,0.0761238163945261,81.0769226152869
2.816848429291745,1,Esmee,1526.4945652173913,228.0,-24.531397863333336,-0.0836833337454455,0.011031506124654,0.0578893280680198,0.1041322649144554,10.68209944,91.442754,0.7577017700463738,0.25638251092718356,0.07114141018646603,78.7997568135454
2.7906658257879537,1,Esmee,1443.359375,229.0,-23.600271356,-0.0739596529591,0.013941139134634,0.0550248252868999,0.0956246811614,11.44838544,88.700972775,0.7150726089133701,0.3022687344557237,0.06306904099752685,78.4332293197163
2.8147047050702443,1,Esmee,1792.4592391304348,230.0,-20.82181956555556,-0.0658960670928712,0.0142612475317217,0.056622884840396,0.0908044072129703,11.71404367,88.132043345,0.8940802508109991,0.43919176147246486,0.05847765807224753,83.61972741846753
2.8441560834047004,1,Esmee,1164.0625,231.0,-24.414974163333333,-0.05734039856209,0.01530527700448,0.05799891797222,0.0893886832008,10.72072523,91.541453435,0.5718577866800201,0.2621199095300002,0.05399676601171259,75.0145687760541
2.842639050803643,1,Esmee,784.6467391304348,232.0,-23.134482367777775,-0.0513137025813564,0.0140105365817812,0.0573356256928207,0.084309757039901,11.663466785,89.035856465,0.3773050880668829,0.32522297049386295,0.04977237896169488,71.84695643895758
2.835590976098185,1,Esmee,83.984375,233.0,-22.636908813,-0.0498840346543564,0.0165292131457544,0.0579721269567326,0.0815123074185148,10.856811855,88.31788732999999,0.018027040560841263,0.34974356052819827,0.049804254453884055,64.95589757318628
2.8226785883931247,1,Esmee,101.90217391304348,234.0,-28.80688122,-0.0460909003055,0.0193527986165479,0.0577597610062,0.0815275841475999,11.06138238,90.57928279,0.02721473514619756,0.045685271130607975,0.048159638170099904,61.47779506185205
2.803928121970716,1,Esmee,93.75,235.0,-28.245618145,-0.0421429296423762,0.0192822154293551,0.060771351190693,0.0798329886466336,11.092462335,89.407269695,0.02303455182774161,0.073344501874155,0.04819378767752969,61.72637536046493
2.804959045098081,1,Esmee,106.4453125,236.0,-27.39298119333333,-0.0390341642953,0.0211742326045339,0.0567600566985,0.0745687578608,10.79276399,89.73736447499999,0.02954431647471207,0.11536273403137118,0.04433546868564471,62.329922887355856
2.6411506240239424,1,Esmee,64.19836956521739,237.0,-26.89622542888889,-0.0348953111329495,0.0248913625645445,0.0595266121331683,0.0759816483092079,10.476406165,90.75131066,0.007881387298338812,0.13984302308647406,0.045473486632724734,62.19953191606626
2.6222089546556435,1,Esmee,72.265625,238.0,-25.061363132222223,-0.224298077758195,-0.051233981822436,0.04412355709116,0.2630127637317,11.163668615,104.276572725,0.012018027040560842,0.2302656464634672,0.18790868136944852,64.5068177493284
2.6514950553975143,1,Esmee,72.35054347826087,239.0,-24.968206279,-0.6319661761623762,-0.1929358305336633,0.0295676674940396,0.6634504562514851,11.56627033,112.2627284,0.01206157061679476,0.23485644712965426,0.5660085845612741,67.58757745438194
2.6727170064485843,1,Esmee,71.3778409090909,240.0,-25.828651574444443,-0.560417037802,-0.155233065209,0.034594893533182,0.5837139903890001,11.839695655,112.1666509,0.0115627987435699,0.19245341719775047,0.4961914701118663,66.51022874213933
2.679706851302845,1,Esmee,73.66071428571429,241.0,-24.603360535555552,-0.5094092152465346,-0.124813433640396,0.0393325176333772,0.5270235250495049,11.8484773,113.005341,0.01273338579297518,0.25283616653972046,0.44609365437172593,66.85745094930996
2.664170796840304,1,Esmee,69.29347826086956,242.0,-24.094784347,-0.4611532885831683,-0.1004152923990099,0.0425962481518811,0.4749992853485149,12.0099435,111.69618435,0.010494001872373777,0.27789897002083613,0.4000015079276582,66.74467974111877
2.6535495283286843,1,Esmee,83.984375,243.0,-24.746955255555555,-0.421665893215,-0.0811421258967999,0.05157660527175,0.434285133251,12.03663224,112.45185625,0.018027040560841263,0.2457597710472233,0.36336553022399803,66.21658230557549
2.650493314362642,1,Esmee,73.3695652173913,244.0,-24.948173561111112,-0.388296814019802,-0.0668427757235643,0.0507474520289009,0.4001673060643564,11.717894165,111.39537705,0.012584093531601746,0.23584366612051544,0.33218509717126854,65.73928664144837
2.6443972123294253,1,Esmee,77.44565217391305,245.0,-24.509689642,-0.3490634532859999,-0.04869964360859,0.055957228141457,0.361525056916,11.720084595,114.0773892,0.014674185190829725,0.25745229928425784,0.296421130068592,65.75428033577643
2.642348095801863,1,Esmee,70.3125,246.0,-23.48706409333333,-0.3162513558732673,-0.0415714440055841,0.0622763781853881,0.3288819538762376,12.32604966,110.2342346,0.011016524787180772,0.3078476259585056,0.26821623719263676,66.06023190478678
2.641832472507826,1,Esmee,82.54076086956522,247.0,-24.65342592,-0.287221757246,-0.029563105724588,0.06811915603319,0.301517037331,12.14976366,110.9616718,0.017286799764864687,0.2503689277665064,0.24314069400474347,65.29528868053332
2.673666648204888,1,Esmee,78.125,248.0,-25.03138494555556,-0.2639370526742574,-0.0255599323350099,0.0540431975006732,0.2816338631316832,12.23684369,109.6755233,0.015022533800701052,0.2317429814588014,0.22008865685553602,64.84207570836392
2.6921231568820727,1,Esmee,75.40760869565217,249.0,-23.682677772,-0.2444965369118812,-0.0150618355623495,0.0725293782009703,0.2685660765297029,11.33286302,114.3714018,0.013629139361215736,0.29820771890629927,0.20667768221133048,65.50449687179055
2.69014007949518,1,Esmee,75.1953125,250.0,-22.748552553333333,-0.226186183941,-0.006753466835731,0.068849186752599,0.265164533634,11.67805193,114.7426013,0.013520280420630946,0.34424171992528263,0.18991021617960563,65.92058797695286
2.710286169897038,1,Esmee,122.76785714285714,251.0,-22.47112481,-0.2020637036059406,-0.0105797247708712,0.0652897436679029,0.2245891385712871,12.21239121,109.68984315,0.03791401387795979,0.3579134512564739,0.1687409460347808,66.40316926091513
2.7029416148262766,1,Esmee,92.37132352941175,252.0,-22.022595874,-0.1901954175075,0.006429396604016,0.072925584838666,0.222915368911,12.41761314,108.01293955,0.022327609060649792,0.38001710618866696,0.16093831415873375,66.29426396874688
2.7814810549557163,1,Esmee,85.59782608695652,253.0,-22.05479413333333,-0.1612561143727723,0.0030424090667326,0.0775944332403574,0.1989111375999999,11.922015535,111.33800125,0.018854368509285666,0.3784303652749855,0.13896972416829487,66.0300095468319
2.982906914611315,1,Esmee,97.88602941176472,254.0,-22.639667904444444,-0.1582896434631,0.0007229409725939,0.078002225177065,0.1920918214881999,11.617414955,110.28137965,0.025155380129017066,0.3496075915854625,0.13674539506454902,65.79236186212228
3.012738421138946,1,Esmee,75.2467105263158,255.0,-22.40990491777778,-0.1420027706563366,0.0131736234490277,0.0830964605395336,0.2000876231892079,12.28565024,110.81828475,0.01354663574308832,0.36093038787762866,0.12664479672626036,65.61525574320339
3.020150667849028,1,Esmee,94.76902173913044,256.0,-20.972081716,-0.123731503710891,0.0089668180940312,0.0759372512726138,0.1673486104077227,11.96580662,108.78728345,0.023557074742548607,0.4317867927932686,0.10929269737529633,66.52692458737256
2.85732658125652,1,Esmee,94.7265625,257.0,-20.54144672888889,-0.1150794188991,0.037760891837448,0.08771359668558,0.1581734365695,11.870228699999998,110.64486335,0.023535302954431646,0.45300862798125185,0.11291285172122205,66.81011240863343
2.695509276563328,1,Esmee,87.35795454545455,258.0,-20.867707934444446,-0.1186274025956435,0.0893851178177326,0.0972045182557267,0.1933554454167326,12.53392659,106.04929615,0.01975690808940684,0.4369303674131056,0.1376716081444119,66.7396754359007
2.694994672654004,1,Esmee,135.11029411764707,259.0,-20.60247869,-0.1525215011676,0.1745455823486399,0.10092694165396,0.270081828146,12.811431015,105.69022875,0.04424283484049604,0.4500009526676684,0.20432547850796964,67.9194719568857
2.6933112433186484,1,Esmee,123.046875,260.0,-19.12673609555556,-0.2010121263633663,0.3158948501247525,0.1515046458913861,0.4140393933178217,12.569431245,107.3508359,0.03805708562844266,0.5227260378477678,0.33807534675180795,69.73845694075654
2.719173809172956,1,Esmee,151.65441176470588,261.0,-18.837047464,-0.2711945141087,0.45520004482,0.188725305427077,0.57855572554,13.570521975,105.63388655,0.05272614804559781,0.5370019898226552,0.47841850348882353,71.32589486669441
2.695000812728977,1,Esmee,164.0625,262.0,-18.201687975555554,0.0094735989147215,0.6788549507108911,0.2067276378286138,0.745531849110891,12.786742315,93.20589453,0.05908863294942414,0.5683127164297583,0.6087393774041633,72.87144027537889
2.690650592737064,1,Esmee,141.74107142857142,263.0,-17.76439769625,0.2652600064724,0.7414509519479999,0.2604019191538,0.8416504666529999,14.31926559,93.190522395,0.04764289291079476,0.5898625266274494,0.7147046005907252,73.7488449824711
2.68628805760874,1,Esmee,188.87867647058823,264.0,-18.804949107,0.2422763657676237,0.654729477879208,0.2130341262236633,0.7397895766049505,16.002925415,86.45137961,0.0718136027570768,0.5385838075161705,0.626620899039836,72.91224493765426
2.6851795699389385,1,Esmee,209.47265625,265.0,-18.477253193333333,0.206208369440297,0.5895157827584159,0.1890698744371881,0.664063968029703,16.712418005,84.24784311,0.08237356034051077,0.5547327709765296,0.558139177513477,72.76937787863639
2.673122577509281,1,Esmee,214.84375,266.0,-16.742504113333332,0.189762947199874,0.5082406744869999,0.1915253849751,0.591638791789,16.4594236,90.31559401,0.08512769153730596,0.6402217817864355,0.4897998657039804,73.30361413781519
2.678609196603078,1,Esmee,184.4429347826087,267.0,-17.860276954444444,0.2015585880259406,0.4364910127643564,0.1762370249801604,0.5322733689306931,12.5656997295,94.66758502,0.069539091245564,0.585137564940062,0.4338026998910117,71.88285420332012
2.683009169958605,1,Esmee,174.609375,268.0,-15.795907334,0.1925389546772,0.396312715516,0.15568112856919,0.481609633021,15.441340985,98.12345747,0.06449674511767652,0.6868703854571457,0.3941814574616236,72.68583118753227
2.73191624806824,1,Esmee,112.16517857142856,269.0,-15.489684931111109,0.1756279036814851,0.3607848321673267,0.1612570489857326,0.4538387868940594,6.4101901115,100.80744657,0.032477287359610835,0.701961127174561,0.36333316617673234,71.9797446027008
3.100586750138094,1,Esmee,70.3125,270.0,-15.486676555555556,0.1547511819062,0.3301716213714,0.1493348296738419,0.417173821595,7.1520395795,89.40365294,0.011016524787180772,0.7021093809210849,0.329326400089677,71.28025426751405
3.2116353551634345,1,Esmee,70.3125,271.0,-12.1459040743,0.1768994026139108,0.2805206470982178,0.1396049773166732,0.390539564360396,6.242687543500001,92.362686285,0.011016524787180772,0.8667437583398018,0.29904766571508257,73.01363692154189
3.1617689366893043,1,Esmee,73.2421875,272.0,-12.607201974,0.1637117086663366,0.2520403692236633,0.1177842163699574,0.3490220931871287,5.055816919,93.220843225,0.012518778167250876,0.844010844635625,0.2662725564518572,72.50868615058738
2.891111440686392,1,Esmee,70.3125,273.0,-12.765688493333334,0.16476116021296,0.255663991942089,0.13569114716135,0.39448230952,7.6578518695,86.282427525,0.011016524787180772,0.8362005763260943,0.27534673596457493,72.45751129937335
2.875421385989694,1,Esmee,97.09821428571428,274.0,-13.328047627999998,0.1848077968837624,0.2341888401000495,0.1365851046380267,0.4021383959663366,7.297772614499999,83.46161699999999,0.024751412833536015,0.8084873313981491,0.27097074849726077,72.36464222142659
2.894329513573269,1,Esmee,107.421875,275.0,-15.17950173777778,0.1698693498388999,0.2198136734361,0.12263974083069,0.3648697637,6.736834008500001,87.32160874499999,0.030045067601402103,0.7172470579605419,0.2493387023079128,71.20257566601785
2.849010354738896,1,Esmee,65.91796875,276.0,-16.36669654888889,0.2492204329619307,0.219060511270297,0.1236695315543366,0.4094419323099009,6.2327598195,82.92993278,0.008763144717075613,0.6587417033760382,0.29398629742019655,70.43205371421554
2.746811344751742,1,Esmee,84.09926470588235,277.0,-15.733339443,0.597964122915,0.3098421389378,0.12592704547164,0.702743090096,8.098415076,61.96750373,0.018085952458098912,0.689953751905769,0.5870049594386939,73.33720374754076
2.6898761493643417,1,Esmee,77.00892857142857,278.0,-14.508941244444443,0.608253608660396,0.2292024373507623,0.1039094567652376,0.6735043010920793,7.5852058445,73.06403134499999,0.014450246798769582,0.7502925017795808,0.563207352949428,73.7981737809258
2.705262388811744,1,Esmee,76.171875,279.0,-15.91725646111111,0.4420674187465346,0.1356289821177326,0.0922522565965742,0.5195217020346535,7.3480445125,86.03428941499999,0.014021031547320982,0.6808902601704534,0.39791291524887734,71.63440707498287
2.734805571801856,1,Esmee,99.15865384615384,280.0,-15.358552101111112,0.389220607369,0.091727439795002,0.071213432391733,0.441140593733,9.0258014205,84.27048740000001,0.02580794268325565,0.708423396588996,0.34007368760862094,71.73782911360203
2.74092665018612,1,Esmee,62.5,281.0,-17.627034312,0.5440106247782178,0.1225737792575188,0.0554379263239801,0.5779786355079207,8.014361449,66.33893053,0.007010515773660491,0.5966318398246258,0.476585278587813,71.11247462207122
2.736730948137844,1,Esmee,74.01315789473684,282.0,-20.878899531111117,0.5610421150229999,0.09828132508054,0.04884015512648,0.590300856257,8.556485262999999,67.931769705,0.012914108004111427,0.436378841812402,0.4865681536695416,69.38737349118739
2.7249231649195926,1,Esmee,70.3125,283.0,-22.91256661,0.7134403679752476,0.0509917903847128,0.0561669062283821,0.7437273284693069,7.8079870595,60.83715076,0.011016524787180772,0.3361590527401511,0.6156126645899066,69.17914044534469
2.714391358103008,1,Esmee,72.35054347826087,284.0,-22.825091755,0.501046503547,-0.10053809450287,0.0287796679951829,0.529008343155,7.964826448,69.49318432999999,0.01206157061679476,0.34046984264683317,0.43360734114967087,67.79572825329527
2.764920494277177,1,Esmee,77.00892857142857,285.0,-22.987287706666663,0.2992606628153466,-0.2147768345718198,0.0246853350538217,0.4112465969534653,7.5052292695,85.11267389,0.014450246798769582,0.3324767722799335,0.30732923706575344,66.73736009986062
2.782148628443003,1,Esmee,73.50852272727273,286.0,-22.691393153333333,0.1388167918227425,-0.2599790803651485,0.0189422114182623,0.3071028587841584,6.4311034750000005,80.840699965,0.012655346656348161,0.3470585541411496,0.24195572737163307,66.35345540179382
2.76385762888596,1,Esmee,70.3125,287.0,-23.212346317777776,0.3463360233782,-0.1741197961486,0.0273082103307999,0.408437086085,7.5791140555,61.380432565,0.011016524787180772,0.3213858091775693,0.32451961902915377,66.67311715810767
2.8145759150130014,1,Esmee,79.4836956521739,288.0,-23.564474416,0.3779183644554456,-0.1137527457110891,0.043659416690297,0.4041721320009901,7.870386014,65.34546125,0.015719231020443706,0.304032819547858,0.3320184432612501,66.61892600107318
2.9036205530114603,1,Esmee,87.63586956521739,289.0,-23.71227941777778,0.397462793032,-0.0664884713743,0.04662758626685,0.417568687758,6.287808395,58.839729805,0.019899414338899652,0.29674893997102675,0.33963054925300923,66.67601996045438
2.9164900186627034,1,Esmee,77.1484375,290.0,-23.377358107777777,0.3950352093821782,-0.0342234630246188,0.0541811744226069,0.4078883182297029,6.211502712,64.368813855,0.014521782674011016,0.3132539733624023,0.334784631123415,66.72776038281637
3.029525393895264,1,Esmee,70.3125,291.0,-23.484088984444444,0.3297560762029999,-0.0240497426968,0.04936967897665,0.3416342626699999,6.9114129040000005,60.933066405000005,0.011016524787180772,0.30799424031264766,0.27645084594961505,66.1278681470923
3.155005756180327,1,Esmee,69.3359375,292.0,-21.512275899,0.2915328270178218,-0.0191779866392445,0.0568663837431932,0.3014368197841584,7.245841654,63.28756722999999,0.010515773660490736,0.4051658440449142,0.2440081655521342,67.02437092616586
3.0938493253278807,1,Esmee,50.95108695652174,293.0,-24.48825363,0.317304420239,0.016309788454078,0.065355726832743,0.329582458518,7.4634056865,57.475655675,0.0010885894058479037,0.2585086730749789,0.2676683004947034,65.26522226897433
2.761866686501188,1,Esmee,61.5234375,294.0,-23.979661812222226,0.3281970546336634,0.0365771098860495,0.0672385453804435,0.3391326131277228,7.304707809,56.367342205,0.006509764646970456,0.28357224676935644,0.27884720066176893,65.76383985946583
2.7720785332935165,1,Esmee,63.802083333333336,295.0,-22.56782255,0.275514911630693,0.0275150791474356,0.0715907148323762,0.2876812366544554,7.130476302,61.282849945,0.007678183942580539,0.35314815451387327,0.23369177151457082,66.26087570513465
2.8134615385817767,1,Esmee,98.84510869565216,296.0,-25.31831997111111,-0.04528774393956,-0.080017559417561,0.0555657453594,0.1247221335373,7.300740475,71.96220477,0.02564716640177657,0.2176027281021263,0.07563751785870267,63.72927620813067
2.8514331566935462,1,Esmee,303.7109375,297.0,-25.177059515555555,-0.0765147112180099,-0.0745822328569306,0.0603996130097128,0.1292349219297029,6.904881829500001,74.25599401,0.13069604406609914,0.22456409026754157,0.08918880203387383,66.02220038080347
2.883115871972552,1,Esmee,1181.046195652174,298.0,-25.15804898111111,-0.12799816616472,-0.08032987747888,0.056935122335449,0.1814813915503,6.793023521,92.16546996,0.5805665019268033,0.22550093571877142,0.12348594835808005,75.30522885402596
2.9140899426716445,1,Esmee,66.40625,299.0,-22.574359798,-0.536410909580198,-0.2228692645287128,0.0358943953540415,0.585787856480198,6.8083894935,102.41447775,0.009013520280420632,0.35282599676127246,0.49568555449818336,68.37966680272915
2.8835973612161703,1,Esmee,98.84510869565216,300.0,-24.308319794444444,-0.465833826284,-0.17679715506,0.038404857391396,0.500485112241,6.701844773,103.9991093,0.02564716640177657,0.2673758722510561,0.42288783328299423,67.10455646131216
2.810184760711475,1,Esmee,72.265625,301.0,-24.69776288888889,-0.4033539714534653,-0.1380815706673267,0.0406306516116925,0.429233796460396,6.831572829000001,103.30665175,0.012018027040560842,0.24818398721440033,0.35962796151764953,66.09559207952522
2.774988311271299,1,Esmee,101.90217391304348,302.0,-23.774517943,-0.3487621665396039,-0.1087841458558415,0.0454374333966276,0.3700618267207921,6.8712115105,104.4201322,0.02721473514619756,0.293681804777322,0.3064147038339631,66.51979399092352
2.7667318247254733,1,Esmee,77.1484375,303.0,-24.499182302222223,-0.305369630366,-0.086571218853,0.04287217692731,0.32158145603,6.689980878,103.74970365,0.014521782674011016,0.2579701044782204,0.26404855011231304,65.49846530811737
2.602652834792844,1,Esmee,89.67391304347827,304.0,-25.017368824444443,-0.2671185916475247,-0.0631561308589108,0.0453411685416287,0.2799377337247525,6.5535764565,104.5976951,0.020944460168513642,0.23243370056221266,0.22679818998509993,65.02247912999762
2.5717392841666444,1,Esmee,62.16032608695652,305.0,-25.045183691111117,-0.235152827013,-0.0487606022938,0.048132297045019,0.246780821485,6.2396918695,106.80919985,0.006836341468724827,0.23106297469496312,0.1973471953673754,64.48826008865305
2.5623722240595006,1,Esmee,62.5,306.0,-24.864033666666664,-0.2100294096237623,-0.0332417437390663,0.0486394207903069,0.219073381090099,6.333850233,102.620630505,0.007010515773660491,0.23999010806340768,0.1736290884638657,64.40912431994502
2.5487156140828304,1,Esmee,132.47282608695653,307.0,-25.001943212222223,-0.187824043196,-0.024859354023286,0.0514834883629199,0.197917367481,6.849300212,98.297518955,0.04289042259040735,0.2331938798557015,0.1543297359194692,64.89077289743231
2.551872043704269,1,Esmee,48.828125,308.0,-24.91754339888889,-0.1694042430386138,-0.0151904612811165,0.0522190109510891,0.1790226202554455,6.8634704625000005,98.51537234,0.0,0.23735313068776273,0.1380314531041214,63.95248919308612
2.548156786072494,1,Esmee,75.40760869565217,309.0,-24.908081339,-0.1543666119069306,-0.0094560939959977,0.0530434799366138,0.1652265422237623,6.4630430515,104.57942635,0.013629139361215736,0.23781942414164092,0.12526737587450454,64.12855488392005
2.665136467508463,1,Esmee,126.953125,310.0,-25.088220557777777,-0.140859231927,-0.0027926038828954,0.0517850000381,0.15142404848,6.235950031,104.98831445,0.04006009013520281,0.22894210361216039,0.11340905607377241,64.45577949464015
2.641486637288116,1,Esmee,928.328804347826,311.0,-24.080278182222223,-0.1271740955330693,0.0014376899379753,0.0548439534238613,0.1406271061910891,6.5603919075,104.5458385,0.4509808190546689,0.2786138386388946,0.10314181617617972,73.18811697416955
2.649213422710785,1,Esmee,339.3342391304348,312.0,-24.25169538,-0.1174702162802,0.004306184890878,0.0526993116081999,0.1300526547479999,6.504191799,102.502561,0.14896257429622697,0.27016634220106495,0.09457195541833255,66.97782323568399
2.63627730038496,1,Esmee,567.3828125,313.0,-24.21318761111111,-0.1082414909552475,0.0061736437031603,0.053194517570099,0.1223457241527722,6.4120509985,103.7515146,0.2658988482724086,0.27206401784116835,0.0874398421480512,69.2822639167266
2.6467052581460506,1,Esmee,88.65489130434783,314.0,-23.29660384888889,-0.0994545990481,0.007550445252724,0.0551211640123,0.1158310894275,6.3454712365,106.2704953,0.020421937253706647,0.3172335700606741,0.08141583178659098,64.86656824009495
2.641253001214708,1,Esmee,76.171875,315.0,-26.166483101111112,-0.0896828642973267,0.0089098337942101,0.0536406485456435,0.1075026307643564,6.549366919000001,108.3560846,0.014021031547320982,0.17580496736249598,0.07337940192572008,62.97711545470213
2.6336544638405086,1,Esmee,87.63586956521739,316.0,-25.676366530000003,-0.0811009686256,0.0099117395059449,0.0544967223108,0.1014493739281,6.854956258,104.85773545,0.019899414338899652,0.1999580747651133,0.06747713006983191,63.337302224518005
2.671110995747666,1,Esmee,105.46875,317.0,-25.591406806666665,-0.0761022678558415,0.011258693610413,0.0548918195412871,0.097118742580099,7.202339085,101.425339365,0.02904356534802203,0.20414491814793287,0.06419734832367512,63.54418911132504
2.7431803556675614,1,Esmee,64.19836956521739,318.0,-25.502260401111112,-0.0688561076688118,0.0087836801165887,0.0541150198357841,0.0909203578887128,6.207889251,106.6111601,0.007881387298338812,0.20853808262115045,0.05845214826405813,63.127701923533046
2.791481218282272,1,Esmee,73.2421875,319.0,-24.364466199,-0.0937294398674,-0.005852185785123,0.051906668900673,0.1205078085543999,7.3455162435,115.65775765,0.012518778167250876,0.2646089587871289,0.07552381526714291,64.0298735909277
2.805704100252743,1,Esmee,73.3695652173913,320.0,-23.759142442222224,-0.6044359839891089,-0.1964136632249505,0.0297477848942976,0.6397338296465346,8.340927181000001,132.35677815,0.012584093531601746,0.2944395145621855,0.543721380236922,68.13472708727363
2.799454395529722,1,Esmee,67.2554347826087,321.0,-25.377881777777777,-0.6700947908470001,-0.209142437622,0.026565777665036,0.7031536516219999,8.823670575000001,135.45639665,0.009448956042759795,0.21466750248783498,0.602347971511612,67.58377292280211
2.812018164818288,1,Esmee,72.265625,322.0,-22.355001542,-0.6878084685712871,-0.1928249736960396,0.0344406964930247,0.7163863001673267,8.419906647,132.00011455,0.012018027040560842,0.3636360444705504,0.6135712996389413,69.51256347156935
2.8164423249912294,1,Esmee,82.54076086956522,323.0,-23.69534966666667,-0.718030185458,-0.1931298141667,0.036230593639303,0.7458294762929999,9.512393932999998,138.40697195,0.017286799764864687,0.29758324372851697,0.6394852880414477,69.03261722437108
2.8761066364627967,1,Esmee,74.57386363636364,324.0,-23.485668276666665,-0.7495118550841584,-0.1973590407564356,0.0327228945321683,0.7773168606089109,9.64465937,139.5930801,0.01320162061273729,0.30791641226741967,0.6672073959080974,69.29668852672856
2.969095388490986,1,Esmee,71.33152173913044,325.0,-22.735803855,-0.6949878898039603,-0.1605751160168317,0.0406541446827693,0.7168637244356436,9.5383007325,142.00946925,0.011539047701987765,0.3448699800132664,0.6129503880186287,69.27282381834799
3.014047308673581,1,Esmee,72.44318181818181,326.0,-24.520828537777778,-0.639466221563,-0.131011363204,0.04802570230253,0.6585077266230001,9.93396396,142.89976685,0.012109072699959027,0.25690337080086195,0.5598927255347953,67.80416370788788
2.949142469474717,1,Esmee,67.96875,327.0,-22.792123526666664,-0.5845375215970297,-0.1107767684021782,0.0538219990715356,0.6048342282019802,9.982805339,137.820799,0.009814722083124687,0.3420945278885581,0.5093130223480874,68.37593295510989
2.717197810414819,1,Esmee,118.56617647058825,328.0,-20.827184111111112,-0.529997536081,-0.07634467987171,0.0613115410567691,0.550774851347,10.514897295,139.10859845,0.035759521635394274,0.43892739488580623,0.4576156052842073,69.64324401361122
2.668110390364109,1,Esmee,68.08035714285714,329.0,-20.628184546,-0.6251400649663367,-0.1257291018258514,0.0566476515620079,0.6479847219524753,9.524403526,152.63651815,0.009871950783317832,0.4487341595465204,0.547196203459543,69.95981855790095
2.651028099011004,1,Esmee,70.3125,330.0,-21.37943132222222,-0.595266083115,-0.094978813293718,0.0763550645345612,0.617158180844,9.5334185035,150.02150005,0.011016524787180772,0.4117124689090662,0.5183780338909393,69.30790439377992
2.679649471670919,1,Esmee,70.3125,331.0,-20.67960054222222,-0.5356848728316831,-0.040421131688495,0.0829337921585148,0.5578045748108911,9.3924617765,151.2158652,0.011016524787180772,0.44620036217633036,0.46169182324714086,69.26826942783671
2.813365444213856,1,Esmee,74.21875,332.0,-21.334821948,-0.418339737116,0.06219368562839,0.089439536870798,0.454647583624,8.2105998655,146.0361818,0.013019529293940912,0.4139108336864706,0.36319081219249144,68.1328470876564
2.590299423528532,1,Esmee,70.3125,333.0,-20.31674766111111,0.069065639984297,0.3674939925352475,0.1212026375836356,0.4581423177049505,4.611598502,118.71952565,0.011016524787180772,0.4640818726687374,0.328482816552948,68.41717550019204
2.1733486690665957,1,Esmee,61.38392857142857,334.0,-18.31458505666667,0.3931334520683168,0.5455176921465347,0.1575056954181455,0.7014749739405941,3.680086403,108.4412582,0.006438228771729021,0.5627491107770521,0.5918501509911368,71.6165551126883
2.1397239596845044,1,Esmee,65.3782894736842,335.0,-19.05145555555556,0.345172154105,0.507801009183,0.14719104160976,0.6481406268659999,3.746562858,109.29365825,0.008486413831273224,0.5264358878612555,0.5394373360101516,70.80245761904175
2.2654444307669848,1,Esmee,66.796875,336.0,-18.767794192000004,0.3094745299019802,0.4475568727227723,0.131862476445594,0.5885702234178218,3.4823905255,106.89663984,0.009213820731096644,0.5404148140673173,0.47613024433076656,70.47829613807588
2.448760388159445,1,Esmee,67.2554347826087,337.0,-19.61291309888889,0.306815156358,0.3734606156053,0.1423895420013,0.533118354478,4.264368237999999,109.147014865,0.009448956042759795,0.49876707365365486,0.426547914583395,69.58656732136622
2.4566238544279577,1,Esmee,88.8157894736842,338.0,-18.62467333333333,0.2642718408674257,0.2850751027152475,0.1075619808118812,0.4292318506316832,4.908356599499999,94.90550726,0.020504440871834066,0.5474678575159284,0.33755769495403876,69.68016466726013
2.508931737773692,1,Esmee,69.19642857142857,339.0,-18.83690151888889,0.2300034151566,0.28789346455,0.099755048544087,0.403107698976,5.1396172215,98.71594704,0.010444237785249302,0.5370091820462023,0.3184564396209182,69.20064645722675
2.6187952540368054,1,Esmee,77.76988636363636,340.0,-19.09632386222222,0.2057518882443564,0.2811374747961386,0.1221877023714257,0.3988658403158416,4.6094350535,100.262515195,0.014840442481904673,0.5242247628069922,0.30733709532078773,69.0462027658883
2.6333657469164016,1,Esmee,64.453125,341.0,-21.389227879,0.1993424554779208,0.2132369305222871,0.0827925384831118,0.3323213170732673,4.870315845,110.50504645,0.00801201802704056,0.4112296913374099,0.24911686674501002,67.08793159054981
2.653475179729005,1,Esmee,68.75,342.0,-22.463699867777777,0.1888851033409,0.14422113406757,0.06309665506777,0.274083318942,4.753532281,110.3764352,0.010215322984476714,0.3582793548751681,0.19819001901607902,66.08917887032018
2.5806106991606668,1,Esmee,65.91796875,343.0,-20.69048928333333,0.1945670540841584,0.0758275219003821,0.0655435186141257,0.2463071063584158,3.80513934,112.799567,0.008763144717075613,0.44566376139798963,0.17427512093186467,66.9174289985723
2.6182086895489567,1,Esmee,68.93382352941177,344.0,-20.226177314,0.213519227649,-0.0302607940356319,0.0426550756586499,0.243394372306,3.809988825,111.56392385,0.01030958202008896,0.4685452094547344,0.17512967341788996,67.22977154120171
2.6176820741784157,1,Esmee,74.01315789473684,345.0,-18.83441974888889,0.2389097363782178,-0.1139543697201683,0.0348221954732703,0.2862377677168317,4.341694399,102.4327897,0.012914108004111427,0.5371314844960515,0.21686035383011076,68.43874280467573
2.618256213448166,1,Esmee,68.75,346.0,-19.086798533333333,0.257913277117,-0.18314138550711,0.019002714123178,0.331543953511,4.5193420085,105.101891535,0.010215322984476714,0.5246941741782032,0.2610450193290932,68.58899670446071
2.616190593652797,1,Esmee,78.68303571428571,347.0,-18.405498332222223,0.2510501126752475,-0.2162385263194059,0.031846356382095,0.3483661121663366,3.974216964,108.6740864,0.015308677301666783,0.5582688743634189,0.27518330056451484,69.20686644291048
2.6167118638130527,1,Esmee,80.078125,348.0,-16.920386059000002,0.2817505808712871,-0.2662073817809901,0.0239335857474089,0.403256226810891,3.0393237325,102.4376391,0.01602403605408112,0.6314557004255593,0.3243037224437301,70.49237890573818
2.616190593652797,1,Esmee,70.3125,349.0,-14.754551986666664,0.554885954421,-0.20438695998875,0.0425338628763459,0.603177374315,3.725463437,55.460670025,0.011016524787180772,0.738188722830256,0.5053188006758736,73.12114557511367
2.6089539740669863,1,Esmee,74.38858695652173,350.0,-14.547255908888893,0.5274205036217822,-0.1707265134223762,0.049575658434297,0.5686900146247525,1.921228397,49.450276845,0.013106616446408741,0.7484043423906337,0.4732033853779319,73.02861152063923
2.60394996722237,1,Esmee,71.3778409090909,351.0,-13.020666907,0.476146699403,-0.1553558808534499,0.04741752171252,0.518788334148,2.4597781525,65.84111441,0.0115627987435699,0.8236351554167819,0.42585909418969425,73.52175059339034
2.6050592729398816,1,Esmee,78.5845588235294,352.0,-12.704073788888888,0.4350281343851485,-0.1374293173828297,0.0585195363405445,0.4819368355673267,3.0792746895,62.07872933,0.015258181389731654,0.8392369694246861,0.38767988964044253,73.4774463780144
2.6102330829881617,1,Esmee,76.5625,353.0,-13.437892808888888,0.361543073377,-0.0833725996641999,0.0475651463629321,0.396618058615,2.8559725285,52.68733338,0.014221331997996996,0.8030741244019959,0.3116540172917222,72.41454827111767
2.611785772985698,1,Esmee,89.61397058823529,354.0,-13.545328941111112,0.3242435189257425,-0.0424715389119208,0.0585272535078712,0.3686631359168317,1.8626988,12.67474389,0.020913723526466168,0.7977796361242327,0.27460259614770055,72.18845087320172
2.61488003249754,1,Esmee,82.03125,355.0,-14.94660953,0.2742963818922,-0.003974386828072,0.050937779419323,0.3179773365539999,1.561194772,53.46996404,0.01702553830746119,0.7287240633083456,0.22751636345219392,70.90533043346693
2.6169373712401542,1,Esmee,88.54166666666667,356.0,-15.347449324444446,0.2186531320277227,-0.0106418557817346,0.0601014744838108,0.2631582692343564,1.12851985095,88.575446024,0.020363879152061427,0.7089705451106004,0.18148642827288156,70.36681555055148
2.6189864585848475,1,Esmee,82.72058823529412,357.0,-17.30703758888889,-0.0837833116351811,-0.0885973212938217,0.046678409396594,0.1820304975888119,1.7233314764999998,153.44192305,0.0173790096910071,0.6124013846173402,0.09611777076214761,68.46533897532541
2.619499447220384,1,Esmee,74.44852941176471,358.0,-18.11905748,-0.054453374890469,-0.05401972984834,0.0518065704147599,0.1656110360288,1.428044131,176.8085034,0.013137353088456215,0.5723847746941021,0.06247400616326746,67.63115640740449
2.618989209050821,1,Esmee,76.82291666666667,359.0,-18.13154274,-0.0560047302986039,-0.0157006250579712,0.0486252427391306,0.1555174050124752,1.537003025,158.09194485,0.014354865631781007,0.5717694969346784,0.047649954043217556,67.5295309081975
2.6215540063141547,1,Esmee,74.57386363636364,360.0,-18.04755663,-0.056404871054922,0.011409930642046,0.0490117475159913,0.1302048548881,2.3228152415,164.74286085,0.01320162061273729,0.5759083603290732,0.04745347761771083,67.55456055714531
2.619499418037514,1,Esmee,122.70220588235294,361.0,-16.75600501222222,-0.0412467050804277,0.0153196507342138,0.0517378082626732,0.1228079612357425,1.914009346,150.20246075,0.03788034993666971,0.639556453005252,0.0406620732553815,68.75758102083947
2.61949669675441,1,Esmee,89.61397058823529,362.0,-14.993063076,-0.017586210049334,-0.00016215790735,0.05445860431501,0.1385463731713,2.0722503330000004,145.34270035,0.020913723526466168,0.7264348171332431,0.031200160608776416,69.38509356099846
2.6230901633890507,1,Esmee,74.57386363636364,363.0,-14.826326596666668,-0.0003366539849955,0.0039646777965544,0.0513836117262673,0.1548501234897029,2.2547121105,124.332788,0.01320162061273729,0.7346516462115632,0.026163132668438064,69.28915722814101
2.618989209050821,1,Esmee,78.83522727272727,364.0,-12.81410480088889,0.0209556910825415,-0.0142937647075881,0.0524171910387425,0.1672484846859405,3.1744406125,3.639517799999993,0.0153867164382938,0.8338146046096588,0.032089257073161674,70.57022364066708
2.617963290145488,1,Esmee,92.44791666666669,365.0,-13.566333694444443,0.0256737306483,-0.008725003238434,0.05751900774993,0.1650107609079,1.906279013,168.69906085,0.022366883658821574,0.7967445149038357,0.036831669285000396,70.30292520630246
2.6174448297608737,1,Esmee,89.61397058823529,366.0,-12.4772048786,0.0260945569020554,0.0019849487983584,0.0510806333264168,0.1649160465165346,2.4191108555,153.39677675,0.020913723526466168,0.8504171446717702,0.03134732158666354,70.87405877928387
2.615392991950207,1,Esmee,65.625,367.0,-13.75426207111111,0.02869652260289,0.00370908769162,0.0563499096048999,0.142299848015,2.650560431,137.19503824999998,0.008612919379068603,0.7874833420866436,0.03661450344869286,69.91497452021063
2.615392991950207,1,Esmee,74.44852941176471,368.0,-12.225493978888888,0.0420610705244158,0.0024732513715132,0.058713814423198,0.1335758419409901,1.914040817,-8.476230000000001,0.013137353088456215,0.8628215414081413,0.0445123627733486,70.9727044608536
2.6123014829043383,1,Esmee,91.71195652173913,369.0,-12.457447124000002,0.036738831614416,0.01896895083727,0.0561351764554,0.1490907257929,2.245466886,153.0906074,0.021989505998127625,0.8513908133804339,0.04225659660960993,70.99453265340463
2.5951826091030523,1,Esmee,78.46467391304348,370.0,-12.17105002,0.0474722684222871,-0.0013643515268118,0.0556268029707792,0.1527090641158416,1.7101503029999998,5.04365215,0.01519670810563672,0.8655045577841962,0.04528701576566249,71.05228498164838
2.59362154909877,1,Esmee,75.63920454545455,371.0,-13.466039212000002,0.02933794808733,0.02928288668125,0.0544704390772978,0.1527736634409,2.0036593985,155.48050039999998,0.013747894569126418,0.8016870603086539,0.04113233780552924,70.2242613175306
2.6230243956187382,1,Esmee,62.98828125,372.0,-12.86191562,0.035389814836198,0.0139722040295608,0.0580107591039208,0.1731136802049504,1.951333006,165.27275285000002,0.007260891337005508,0.8314584715648611,0.041952337961542976,70.45833818921079
2.712432036670512,1,Esmee,66.17647058823529,373.0,-13.633681047777776,0.0431913409252277,0.0185465032686267,0.0584480555760297,0.1355601366489109,2.489428745,131.427287,0.008895696485905326,0.7934256149640635,0.04693501384225086,70.07450142002487
2.6286384682576385,1,Esmee,78.125,374.0,-12.098482133222223,0.051236288368034,0.0233503543089063,0.051173585935736,0.1441500222832,3.8199930105,143.762565,0.015022533800701052,0.8690807273459621,0.04789282788646143,71.11256202725725
2.62001240667305,1,Esmee,71.3778409090909,375.0,-13.929848696,0.0607275818330019,0.0003802398037306,0.0519050154713168,0.1395738224393069,3.5065789625,141.4026629,0.0115627987435699,0.7788303748960219,0.05125801766981988,69.98728461498222
2.6311150329892845,1,Esmee,68.27445652173913,376.0,-14.854572562222224,0.057041405531629,0.02307231116719,0.062855662073439,0.1711963292953,4.2316489015,122.99780935,0.009971478957566782,0.7332596756478923,0.05840253096742287,69.46576593466543
2.6382538800298447,1,Esmee,71.484375,377.0,-13.840656581111112,0.0680375633302376,0.0182063784072673,0.0632789614666633,0.1769602515067326,3.3585643695,117.8717819,0.011617426139208813,0.7832257919403673,0.06435354224400269,70.14588636402061
2.6328531853078814,1,Esmee,67.96875,378.0,-12.6874376308,0.065421029266442,0.023872172989062,0.05414544498643,0.1670967644969,4.2148583905,121.5843245,0.009814722083124687,0.8400568048205325,0.05862678547208137,70.74599038328553
2.6231313606305497,1,Esmee,91.6193181818182,379.0,-14.146662566,0.0640491471396039,0.0302121999934954,0.0573714210732574,0.1736290062756435,3.8803348305,112.6258612,0.021942003914963364,0.7681457153738693,0.061217955115398945,70.14633230370889
2.6177486501749483,1,Esmee,74.57386363636364,380.0,-16.39114679,0.0667905277657663,0.0069059264122237,0.0562179680518118,0.1568984569942574,4.2702983165,114.1804921,0.01320162061273729,0.6575367873736313,0.05806083120953579,68.61896051041461
2.614763994777369,1,Esmee,81.52173913043478,381.0,-14.706427364444444,0.082213275424825,-0.003318867909991,0.06245427410759,0.2161381057309,4.3352631605,77.55713027,0.016764276850057696,0.7405603201965899,0.07197989226224762,69.79784851745822
2.573645731669898,1,Esmee,69.2471590909091,382.0,-14.3597601443,0.0671287603018118,0.0130803256219603,0.0262577034459703,0.2886040195249505,6.923952104,94.468552675,0.010470250830791642,0.7576441959409531,0.04538988110201529,69.6642544167234
2.553177551796585,1,Esmee,85.4779411764706,383.0,-14.797870016666666,0.10013249065027,-0.06077476958445,0.0358033551340579,0.3593390462792999,6.323119548499999,104.71738855,0.01879289522519073,0.736053995925006,0.08896083602251463,69.920192543784
2.615325156406441,1,Esmee,78.125,384.0,-15.009306162222222,0.1032108011716633,-0.0343208560740891,0.0589538513084752,0.2455476510546534,4.0139965815,94.153144235,0.015022533800701052,0.7256343524495336,0.09005372741394334,69.72849272471997
2.6214579151625346,1,Esmee,70.3125,385.0,-14.9804188631,0.11706405996128,-0.0123388544011199,0.04342559249971,0.3623880618654,5.937585698,113.05312155,0.011016524787180772,0.7270579281443703,0.09160276892334976,69.67784778486286
2.6195904441305244,1,Esmee,57.90441176470589,386.0,-14.84075330111111,0.0965899853251514,-0.0123850815523247,0.0454716888143564,0.5042972812440594,8.1402615975,100.96787373,0.004654039883354448,0.733940693425122,0.07567602234097537,69.50577729749635
2.6176516327322807,1,Esmee,70.3125,387.0,-15.765052717333331,0.1353773789900333,-0.0113850887529513,0.0639814732769,0.7784339143814999,10.900733305,90.72521342,0.011016524787180772,0.6883909112139615,0.11346646839947275,69.38875317750694
2.620527050084273,1,Esmee,75.89285714285714,388.0,-18.317936847,0.0534458906167425,0.0232830033912871,0.0324833960558514,0.7084126123563366,6.203315994,7.925473869999998,0.013877959796838112,0.5625839334362239,0.03961653840398078,67.3454987044033
2.636137756814168,1,Esmee,73.2421875,389.0,-22.09863867,0.0865578953781782,0.1926326118711485,0.066599583650594,0.7901357388594059,7.346350317,89.09340432,0.012518778167250876,0.3762696919463378,0.1765528164377885,66.17803439820338
2.6258462833888827,1,Esmee,77.76988636363636,390.0,-21.467576228888888,0.2735911413244,0.3266143902611,0.10496163740378,0.596313220502,5.474405678,81.77448788999999,0.014840442481904673,0.40736865863371224,0.36895278213423227,68.1368550103165
2.615134189358987,1,Esmee,77.44565217391305,391.0,-22.576131074,0.2606303193443564,0.2465689052040593,0.0823894395419792,0.3946973899475247,4.856837493,80.850505215,0.014674185190829725,0.3527387076917136,0.30638922701521065,66.97746201223885
2.633532956989187,1,Esmee,80.50271739130434,392.0,-17.077741081111114,0.184676511952,0.1756808309601,0.080036886656727,0.281450199883,5.1262404805,81.2731987,0.0162417539352507,0.6237011926749343,0.2170244571824836,69.5454450482641
2.6421884180750115,1,Esmee,79.24107142857143,393.0,-16.63927907888889,0.1451352929673267,0.1368938998569109,0.0648002043547029,0.2464449850722772,4.898225326,82.616157455,0.015594820802632522,0.6453087457671132,0.16622375176306792,69.38539137936255
2.630812175187898,1,Esmee,77.71381578947368,394.0,-18.83564386444444,0.1362167799674,0.0872257474015665,0.06877680992132,0.2233267319187,4.964576559499999,93.01730172,0.01481169122104209,0.537071159674919,0.13612496280401815,67.83008744295202
2.633852034534205,1,Esmee,76.82291666666667,395.0,-16.221569287,0.1244636627764356,0.0600002727858217,0.0499762216523564,0.2016672880409901,4.8821534705,84.233949515,0.014354865631781007,0.6658936230418098,0.11060205486705493,69.16263722807378
2.652547550533234,1,Esmee,85.59782608695652,396.0,-20.357948463333333,0.1037580932111881,0.047080341785691,0.0557431683495049,0.1694493584022772,5.2836505295,86.543165875,0.018854368509285666,0.462051483451553,0.09282213890578336,66.66428228285062
2.6550983291458703,1,Esmee,71.42857142857143,397.0,-21.436054317777774,0.07425752392112,0.063991438395261,0.05647223920033,0.1524115210333,4.1950603715,86.95639665499999,0.01158881178911224,0.40892206888237304,0.08068158401330865,65.78429373447719
2.631262679039061,1,Esmee,75.1953125,398.0,-22.147929537,0.0569593644192277,0.0778563146846237,0.0547131610504257,0.1279766236889108,3.616105121,89.264943805,0.013520280420630946,0.37384062165002,0.07871123070967154,65.38618291389024
2.623697761004833,1,Esmee,76.48026315789474,399.0,-23.70628057125,0.0426403372011999,0.064187137393253,0.0491587172831139,0.1214996700008899,4.525764015,83.386721765,0.014179163482065205,0.29704456512026167,0.06145175557260576,64.33973209566528
2.7520983424316987,1,Esmee,73.66071428571429,400.0,-24.793417041111116,0.0648258143255237,0.0875676758263366,0.0561733844779207,0.1434068469443564,2.833664293,102.21887788,0.01273338579297518,0.24347011882408628,0.08904739553877555,63.88868830605875
2.752438971364477,1,Esmee,75.40760869565217,401.0,-23.716981936,0.1346665834262,0.1245184556113,0.067284951317048,0.2030527714724,4.5151876055,69.737985955,0.013629139361215736,0.2965171983112282,0.1534727960859813,65.0585715356469
2.7173581012857726,1,Esmee,65.4296875,402.0,-23.91005407777778,0.1914473199356435,0.1450079290460396,0.0660801830162871,0.254070611460396,3.902553138,69.33612102000001,0.008512769153730596,0.28700253904100553,0.20102886992527116,65.22251681096884
2.706110733328729,1,Esmee,64.19836956521739,403.0,-24.35239424222222,0.06153441499328,0.08375121491661,0.059543132543036,0.1643451782225999,4.153601193,77.30580875,0.007881387298338812,0.2652038688264945,0.08656455769743489,64.0325906334642
2.562385927075157,1,Esmee,57.6171875,404.0,-24.04484403888889,-0.0716160188736633,0.0336456517388703,0.0516818544593712,0.1029569710171287,4.986576595,75.46009734,0.004506760140210316,0.28036004499080286,0.0641995629832303,63.96805224655968
2.5109154322827307,1,Esmee,72.35054347826087,405.0,-23.611961301,-0.0117821590770801,0.0501297168527366,0.0534961528443366,0.1363239859097029,4.4446684735,76.1681609,0.01206157061679476,0.3016926500836413,0.04627084715195189,64.2317099905552
2.367285949716164,1,Esmee,63.17934782608695,406.0,-22.33548093111111,0.2210629084016,0.1526545074184,0.0646004244438799,0.287187377101,5.097310103,54.871507820000005,0.007358864383531818,0.36459802665836993,0.22511978877761535,66.323311917792
2.370259505461303,1,Esmee,78.125,407.0,-23.44207365625,0.2029464070178218,0.1254139557152475,0.0672889645901485,0.2535153336336633,5.1406149035,53.856619405,0.015022533800701052,0.3100647696402647,0.19995617943441174,65.6208773471725
2.380229000116078,1,Esmee,89.67391304347827,408.0,-24.51004029,0.1633816005829,0.099225716191,0.063805279129247,0.2097703389619999,5.035328063,55.231710695,0.020944460168513642,0.2574350192343602,0.15892180039486073,64.77948383734149
2.383739842059593,1,Esmee,77.44565217391305,409.0,-23.184202052,-0.1274307653225792,-0.0274854436087841,0.0506939992179128,0.2709219556730693,9.8245929535,63.5999425,0.014674185190829725,0.3227727679424145,0.10435251727197893,65.0015770573014
2.320471832509265,1,Esmee,78.515625,410.0,-24.96843999111111,-0.424045256457,-0.1459541654575,0.0297750102806499,0.46278814574,20.0067241,84.78160897000001,0.015222834251377066,0.23484492971919788,0.3783774195514536,66.14961519806954
2.319063977299668,1,Esmee,75.40760869565217,411.0,-20.78363246,0.8161246018415842,-0.2609487962145544,0.045003610522594,0.8868222840485149,7.152502316,10.84309341,0.013629139361215736,0.44107363471700256,0.7400187065634993,71.48561605633634
2.317242959182009,1,Esmee,74.38858695652173,412.0,-24.52299581,0.6433384674069,-0.26386734606941,0.088433441555935,0.7697191008900001,7.1287940535,11.645454103,0.013106616446408741,0.25679656690595304,0.6009966721517763,68.15166450901383
2.3637367965695595,1,Esmee,88.54166666666667,413.0,-26.431227007,0.5795958988980199,-0.3512303283679009,0.0423622090074653,0.7037574955891089,6.2007839885,15.395996955,0.020363879152061427,0.16275829975314243,0.5815985632666513,67.01316568621215
2.390488844393288,1,Esmee,64.453125,414.0,-26.37847649222222,0.1034270097279742,-0.1942712622230693,0.0463594466740198,0.2975699538356435,3.1011259945000003,46.667400285,0.00801201802704056,0.16535786264097277,0.17963168971200744,63.58158822992854
2.4204231487943155,1,Esmee,74.77678571428571,415.0,-22.73124474888889,-0.506873179948,-5.062227070699976e-05,0.039234390184761,0.5250951531670001,1.918842641,102.98473325,0.013305672794906643,0.34509465427659913,0.4305498866935884,67.85164840076602
2.3539614111782283,1,Esmee,73.66071428571429,416.0,-25.02350619111111,-0.5121253180148515,0.0005415187468415,0.0472905723507524,0.5411321251950495,2.2201535805,95.95882097,0.01273338579297518,0.23213124909452773,0.4357856374449119,66.52652780455313
2.3497053766773406,1,Esmee,85.546875,417.0,-22.054609204444446,-0.46251318192042,-0.01944702795668,0.0477496903391899,0.535854908533,1.6992542017,94.598250805,0.018828242363545317,0.37843947863204863,0.3924779451177204,68.05766215179725
2.331557243013038,1,Esmee,76.82291666666667,418.0,-19.77200047,-0.4281267932990099,-0.0431730383458131,0.0651074726379307,0.4711013531603961,1.98441666,93.45382787,0.014354865631781007,0.49092719516895944,0.36576197013548395,69.104319415747
2.3218903572827827,1,Esmee,88.23529411764706,419.0,-22.30843030333333,-0.352186332032,-0.03604490507646,0.03031274362195,0.367963856358,1.8568890935,99.78048687,0.020206780759374356,0.3659310905793545,0.2950603541938103,67.15579153569023
2.383093167599872,1,Esmee,76.171875,420.0,-22.801200457777774,-0.3195669920114851,-0.0445769620555966,0.0273787246834732,0.3938151459533663,2.9410697595,109.58550722,0.014021031547320982,0.3416472137087584,0.2671770862186643,66.51760388520084
2.718594573665923,1,Esmee,73.2421875,421.0,-23.204798425555555,-0.2993810467093069,-0.0301195158407425,0.0644879398747188,0.3914168904554455,0.7798485919,56.6203141845,0.012518778167250876,0.3217577718130978,0.2529302505011472,66.13491082911136
2.881665586447434,1,Esmee,82.54076086956522,422.0,-22.906164523,-0.2563716939708,-0.0139249438067499,0.037177328022145,0.506736337667,1.58891009705,84.98450980999999,0.017286799764864687,0.33647454971378193,0.210178746311338,66.06486056235337
2.948679340334974,1,Esmee,73.66071428571429,423.0,-22.570102031111112,-0.2443086292516178,-0.0467236297908148,0.0608276291969999,0.4319892534566336,1.6201323959999998,77.838830875,0.01273338579297518,0.35303582092765284,0.2072035095284951,66.1487256432193
2.8940075253300743,1,Esmee,74.21875,424.0,-22.96154634222222,-0.1959029866635599,0.009412425294573,0.05771747980123,0.3875612759519999,1.133687157,127.0852943,0.013019529293940912,0.3337453152690168,0.16151095336934507,65.55742199606178
2.808400605415043,1,Esmee,73.4375,425.0,-22.907105851111112,-0.2535349417870297,-0.0506692599970594,0.0263001507573564,0.5382708931623763,2.0367077065,91.75213449,0.012618928392588883,0.336428160751831,0.21058191864256898,65.9741718460143
2.828754122948316,1,Esmee,80.35714285714286,426.0,-22.979960551111112,-0.1902949246833999,-0.04036435875728,0.04645568396896,0.2500141726483,1.9071594995,95.10621625,0.016167107804563992,0.33283785693921714,0.1575752023995722,65.57799805855846
2.6467049269376486,1,Esmee,93.75,427.0,-22.70391527,-0.1696597971131287,-0.0401497123361485,0.0487208012977722,0.2501109536422772,2.27764133,96.472858755,0.02303455182774161,0.34644146007295185,0.1407805287893628,65.74423278774516
2.4740725603448026,1,Esmee,105.46875,428.0,-23.22930824777778,-0.1328147316953465,0.0015817138066782,0.0523364126237188,0.2256601773564356,1.750338648,93.63753655,0.02904356534802203,0.32054991963374707,0.10691253909186776,65.28277065530035
2.466486194764264,1,Esmee,85.9375,429.0,-22.71786157333333,-0.147512248531092,-0.0828551422748799,0.06428327146969,0.3123800886367,1.0995069935,80.41513649,0.01902854281422133,0.3457541816128178,0.14074877785971524,65.65561125851596
2.4240815784063767,1,Esmee,78.125,430.0,-22.903044607,-0.1178100533933861,-0.0527449173451693,0.0506422832009405,0.2005692600251485,0.90947472875,93.87334998,0.015022533800701052,0.33662830021045315,0.10327818284657256,65.16621574131204
2.406080234369153,1,Esmee,67.55514705882354,431.0,-22.73606288,-0.1122214266996999,-0.04130575755518,0.03757917791555,0.1952849700898,0.16727438945,-16.40404092,0.009602639252997145,0.3448572151752387,0.09149684292338713,65.0623141105499
2.464440646937096,1,Esmee,69.3359375,432.0,-23.0888424,-0.1207868394025445,-0.0210411953943277,0.0536026416442871,0.1885388821956435,1.1265724386,-95.772150965,0.010515773660490736,0.32747212326396724,0.09898851449993043,64.93188906837686
2.4901345336732152,1,Esmee,73.06985294117646,433.0,-22.438930094,-0.1017039613358299,-0.007154623834394,0.06004151996705,0.1849030559866999,1.0547608246,-63.681682365,0.012430410321364396,0.35950001755351196,0.08527726021307072,65.244826498774
2.5310971173667887,1,Esmee,74.21875,434.0,-22.55849356,-0.104672144994791,0.0001509319777306,0.0497835356356613,0.1623087005166336,2.161073552,-90.25818078,0.013019529293940912,0.3536078902394316,0.08314139900578078,65.16881646079824
2.464513420320452,1,Esmee,71.54605263157895,435.0,-22.78856396333333,-0.0867255591797881,0.0124422843956712,0.0555824857056128,0.1834057396798019,2.0016208895,-95.200939645,0.011649052526157656,0.34226994435183233,0.07238589546358339,64.91930754645381
2.426918744839408,1,Esmee,74.21875,436.0,-22.646354469,-0.081206670385502,-0.009290895305064,0.046898429294587,0.1605113275388,2.164501686,-94.932280345,0.013019529293940912,0.3492780754634128,0.06395761312332841,64.9633883964264
2.419623319812786,1,Esmee,78.125,437.0,-22.864962631111112,-0.0611151472081396,-0.0098356665778633,0.054746194927297,0.1664038108043564,1.854288564,-92.04811431,0.015022533800701052,0.3385049926301014,0.053691593938933156,64.7920433390867
2.418095892984184,1,Esmee,74.44852941176471,438.0,-22.71005566777778,-0.05205615041001,0.015854647766628,0.056147555013319,0.1416939716385999,1.73829566515,-93.725591835,0.013137353088456215,0.34613885923110455,0.04975537422130972,64.81445636631285
2.4217393444124813,1,Esmee,70.3125,439.0,-22.739016131,-0.0616906926973465,0.0095688178937208,0.0594235969314158,0.154646803940396,2.122343649,-93.79345856,0.011016524787180772,0.3447116779851204,0.05683489513254027,64.81154979262539
2.4269215249602154,1,Esmee,66.796875,440.0,-22.238788826666664,-0.0404349733880769,0.00175282714347,0.050354005105812,0.1640165142707,1.8202053385,-87.571549525,0.009213820731096644,0.3693630456789212,0.03772849454843312,64.91846091915644
2.425349521919231,1,Esmee,74.01315789473684,441.0,-22.50067347555556,-0.0488884640547009,0.0107349625576475,0.0501723060045069,0.1314416300459406,1.9139484585,-90.465104825,0.012914108004111427,0.3564572832041481,0.043275684197778934,64.88197503211424
2.449973203577196,1,Esmee,71.484375,442.0,-22.624598107,-0.0413801716655891,0.0163035279894653,0.0581622656733267,0.1521808667649505,2.0364477705,-92.51539044,0.011617426139208813,0.35035023620852873,0.0453544717390965,64.7993871311993
2.486619244219497,1,Esmee,71.54605263157895,443.0,-22.132721157777777,-0.04344246208199,0.009073326257579,0.05783126660634,0.119275582847,1.837850301,-88.86710805000001,0.011649052526157656,0.37459009562912127,0.04507008497243513,65.08862287785209
2.497910488870553,1,Esmee,71.77734375,444.0,-22.868718301111112,-0.0332027081464648,0.0180234184497821,0.0610955532471514,0.1140186863026732,2.160900003,-92.573931455,0.011767651477215823,0.3383199119651626,0.04412763123415727,64.64821302299953
2.449460188030252,1,Esmee,77.63671875,445.0,-22.271736791,-0.0372007516016779,0.016066868073151,0.05096478770731,0.1079214751504,1.9870088125,-91.441587725,0.014772158237356035,0.36773935905384636,0.038177947765463884,65.013739055517
2.447969949936632,1,Esmee,70.3125,446.0,-22.767338378888887,-0.0414002693025069,0.0172052569297237,0.0605562257601128,0.1444778240349505,1.7787861655,-87.56601586,0.011016524787180772,0.343315948202728,0.04723773742411741,64.71802377356929
2.4268064353402994,1,Esmee,69.29347826086956,447.0,-21.54522556333333,-0.0306551412207419,0.02146561982637,0.0589724267525519,0.1218173651853,2.384454268,-95.347807795,0.010494001872373777,0.403542073643275,0.042367820774911684,65.39132748736607
2.372605052794136,1,Esmee,77.20588235294117,448.0,-22.485570754,0.025698738574594,0.0070605939522386,0.0519012524095455,0.1506138010525742,2.9046748785,-55.7285428,0.01455123862263984,0.3572015503383449,0.03218798477890468,64.83494725474418
2.369411206085692,1,Esmee,76.82291666666667,449.0,-21.591721656666667,0.4121092737499999,-0.126555629922355,0.036886388109989,0.447956510562,3.6418504705,-32.735548025,0.014354865631781007,0.40125073072145473,0.3635340056587693,68.01037812656324
2.369408204270195,1,Esmee,87.23958333333333,450.0,-23.07238788444444,0.3519980605495049,-0.116485409379297,0.0494420698175445,0.3970032117782178,3.560404259,-31.993492375,0.019696210983141376,0.3282830072554441,0.3116412106732612,66.82644999211425
2.3737068149617726,1,Esmee,70.3125,451.0,-21.493732094444443,0.3011435026158416,-0.0980132851538287,0.044397833188693,0.3438799705148515,3.5213355165,-31.63532206,0.011016524787180772,0.4060796888922086,0.2636087471665255,67.20215673978232
2.3346262156342874,1,Esmee,75.2467105263158,452.0,-23.185685337777777,0.238089306024,-0.10189727247651,0.0465020173077399,0.278979623566,3.4353071440000003,-32.142142475,0.01354663574308832,0.32269967112665454,0.21344719925406594,65.85090636241415
2.3026666121287054,1,Esmee,76.70454545454545,453.0,-20.569281311,0.3841995573059406,-0.1853783810106931,0.0330677586812356,0.4401362719297029,5.552063166,-19.41271571,0.014294168525515545,0.4516369305303525,0.359272426033558,68.579705945143
2.309296423678911,1,Esmee,74.01315789473684,454.0,-23.219881837777777,0.602177502252,-0.317925927735,0.01640630478969,0.7004471322339999,5.7377168085,-10.974052256,0.012914108004111427,0.32101445624926084,0.5834695761254887,68.77821224407727
2.3195530952672234,1,Esmee,71.54605263157895,455.0,-21.802283523333333,0.3729525747653465,-0.3520012012574257,0.00756469341219,0.5291030850178218,5.583659131499999,0.05775372,0.011649052526157656,0.3908741719999937,0.43453325759003136,68.39973717524333
2.320087942650169,1,Esmee,74.21875,456.0,-22.87129050333333,0.224798372153,-0.368398650321,-0.001588828825608,0.457111379699,5.1714062975,12.691951402,0.013019529293940912,0.33819315298536795,0.362554274760234,67.2191426197851
2.327738937062534,1,Esmee,62.04044117647059,457.0,-21.019194711,0.1148342427908613,-0.3472289296260396,0.0042974545632574,0.3995931088663366,4.96733857,12.71185409,0.006774868184629885,0.429465048752429,0.30429159938795447,67.72341074382538
2.324669315927281,1,Esmee,64.14473684210526,458.0,-17.54197526333333,0.0079505733713613,-0.3692151942745544,0.01675520803,0.4083593458585148,4.3056057835,14.822118815,0.007853886092296338,0.6008235779928599,0.30777059257997075,69.82912539840001
2.3327585198390914,1,Esmee,68.84765625,459.0,-19.67536286111111,-0.069146230701103,-0.411309589899,-0.02009283976922,0.447092930292,4.967535592,23.939281615,0.010265398097145719,0.49568952863043364,0.3501558124082189,68.95482880477387
2.357425429863761,1,Esmee,77.71381578947368,460.0,-15.442848840900002,-0.1012962740373663,-0.3570600761845544,0.0160494954152079,0.4185283236049505,4.2003773325,21.6139916,0.01481169122104209,0.704269225255438,0.30937879608129965,71.2224948961365
2.3629407152617867,1,Esmee,128.90625,461.0,-21.732064984444445,-0.4538305297065,-0.16829762484399,0.0360184098812,0.541656389328,2.5776667865,77.32191277,0.041061592388582875,0.39433456491752616,0.41017363962258396,68.83463574376265
2.574932442811926,1,Esmee,85.9375,462.0,-23.793424778888888,-0.681707873450495,0.093199328954495,0.068839686708396,0.7119199564821782,1.368992165,94.40989937,0.01902854281422133,0.29275006962535044,0.5926181302661571,68.63451673391789
2.6646187793317737,1,Esmee,415.625,463.0,-22.479442144444445,-0.527533029337,0.22721533044219,0.088491019085352,0.5962713006220001,1.821026984,98.90432676,0.18808212318477716,0.3575035702526858,0.49496471284210525,72.01140300946462
2.6772342947848355,1,Esmee,92.1875,464.0,-21.499830487,-0.3903488746376237,0.3213848182663367,0.1245396319810792,0.5318994548415842,1.814876297,98.713982545,0.022233350025037558,0.40577915808166326,0.44148250916454207,68.84587697079705
2.7404778709099844,1,Esmee,74.21875,465.0,-23.100833916666662,-0.264725652642,0.41835472316,0.136197673920015,0.543011790521,1.1275448845,91.52359335,0.013019529293940912,0.3268811773399934,0.435045934896969,67.6633321931345
2.910078936223228,1,Esmee,96.21710526315788,466.0,-23.160211476666667,-0.17325540199099,0.5076096430831684,0.1725936712202218,0.5873519209079209,0.70970468155,92.504997415,0.024299607305695376,0.32395503146262755,0.47928546838900266,68.20773627077746
2.4396168267786797,1,Esmee,83.49609375,467.0,-23.035586555555557,-0.1060910015461287,0.5334302208475247,0.1805882391897623,0.6309261396613861,0.8460003572000001,22.866341585000004,0.017776664997496243,0.33009658896560157,0.4878071662872181,68.2191496978349
2.380881720179469,1,Esmee,79.42708333333333,468.0,-22.396117989,-0.022546563885884,0.6785632427420001,0.2269622658653199,0.788311350192,0.79081547995,-90.02857662,0.015690201969621096,0.3616098123067334,0.6142023253352694,69.56674038975538
2.387724433515613,1,Esmee,76.82291666666667,469.0,-18.70760220333333,0.0001324535457663,0.7183491482069306,0.2571363739752376,0.7872206432920792,1.84685595,-126.7816485,0.014354865631781007,0.5433810952598659,0.6559067162660681,72.05492418588256
2.3893085329932946,1,Esmee,111.67279411764706,470.0,-19.953256096666664,-0.21055959986746,0.7376056782220001,0.26481313466237,0.8686012422989999,2.878623183,7.711716350000003,0.032224807799935196,0.4819948576879315,0.6988462946189504,72.01920480520549
2.384069838002745,1,Esmee,97.45065789473684,471.0,-20.166817682222224,-0.456398891120792,0.6830118651376238,0.2238295220685247,0.8979400442782178,3.2628845775,179.6719744,0.024932135044672267,0.4714704718233545,0.7341808140351406,72.02973487505483
2.446069607071539,1,Esmee,75.52083333333333,472.0,-21.401750428,-0.411631783913,0.534907532966,0.18551076938569,0.7329137653710001,3.301478855,160.2847403,0.013687197462860956,0.41061257596368184,0.6001438265691819,70.00224547337486
2.4514570018021447,1,Esmee,82.72058823529412,473.0,-22.146186514444445,-0.3852023285544554,0.3215498979039604,0.1104036581498346,0.5409748257613861,3.9806900855,159.78820975000002,0.0173790096910071,0.3739265183804531,0.43531649219526286,68.31723035194769
2.4373304021731674,1,Esmee,93.75,474.0,-20.55519272777778,-0.385311533270297,0.105390123736298,0.0115322897513643,0.4502426910970297,4.2752504795,149.64943105,0.02303455182774161,0.4523312205906653,0.334281519376316,68.56291783865335
2.4439151736000344,1,Esmee,71.484375,475.0,-22.297655994000003,-0.372762026827,-0.1041485966841,0.0021998570111299,0.431346746339,4.2259088945,148.63051835,0.011617426139208813,0.366462052121681,0.3231401681447615,67.21501449340244
2.441887683290118,1,Esmee,76.48026315789474,476.0,-22.25884211111111,-0.4361589820960396,-0.1773088253990098,0.0020258402301627,0.484917800070297,5.3670511325,160.4352451,0.014179163482065205,0.3683748131613715,0.39730036719766104,67.88248396515905
2.4439151736000344,1,Esmee,106.08552631578948,477.0,-22.40694919888889,-0.645678590356,-0.1073130206253459,0.0216109640656299,0.671664157088,6.4649106575,167.127936,0.02935982921751048,0.3610760466861311,0.5602283372219549,69.40193584235942
2.4398467588804347,1,Esmee,84.09926470588235,478.0,-21.091179711,-0.5840470266841584,-0.0879017819669307,0.0223385405793762,0.6013652837237624,6.3899442445000005,165.2643657,0.018085952458098912,0.42591760404466134,0.5037151306660995,69.5024513430267
2.456979059061504,1,Esmee,75.0,479.0,-24.50883067333333,-0.53956047309,-0.07234783315705,0.033674986173565,0.553876391767,7.0453001155,167.63427704999998,0.013420130195292939,0.25749462954543345,0.46333660224246526,67.06503097639079
2.4484433140072186,1,Esmee,68.93382352941177,480.0,-18.03861480966667,-0.4807757233138613,-0.058293314223296,0.0487891442491386,0.4985306562227722,6.8191513255,166.70948355,0.01030958202008896,0.5763490162048708,0.4113939746116707,70.4135316317536
2.439333771602056,1,Esmee,81.52173913043478,481.0,-23.068999278,-0.408370163171,-0.05462813117138,0.058869790580744,0.444822791718,6.794480780000001,166.59260875,0.016764276850057696,0.3284499989064552,0.3489408302504617,67.06821216588231
2.4347899815743053,1,Esmee,65.91796875,482.0,-24.489306595,-0.3400951108722772,-0.0442897653543009,0.0582816993956732,0.3661196234920792,6.9601439665,166.355065,0.008763144717075613,0.25845678261006655,0.288476732185919,65.58455814314966
2.435794330808571,1,Esmee,71.61458333333333,483.0,-23.729255684,-0.2910526200910891,-0.0469697657273532,0.0660075096527307,0.3101891687752475,6.709095504,166.0402772,0.011684192956100816,0.29591234393341226,0.24796610853776233,65.76836085462506
2.4408671791252816,1,Esmee,69.07894736842105,484.0,-23.04936761,-0.236553660545,-0.035558608228011,0.077252401633457,0.26340882932,7.344459265,166.87740824999997,0.010383997048203886,0.32941745402559464,0.20305225533958965,65.78510743198792
2.4219601436493314,1,Esmee,67.3828125,485.0,-21.49556416555556,-0.196844811430297,-0.0446875728551703,0.0842390238492019,0.2348698038514851,6.872136857999999,165.1794275,0.009514271407110666,0.4059894038193825,0.17415166480272937,66.45537159239663
2.381408733899764,1,Esmee,88.65489130434783,486.0,-18.021626823,-0.10098893676844,-0.054915217766673,0.08289295329748,0.1890227899751,5.459404234,159.60253775,0.020421937253706647,0.5771861898298802,0.10599259598374189,68.18261379090264
2.4079945062425803,1,Esmee,95.78804347826087,487.0,-17.31414716888889,0.4828885133677227,-0.1947473095296039,0.0637258276834277,0.5335738669564356,2.087725884,116.239610405,0.0240795976573556,0.6120510221536956,0.44486820312198994,71.38514984396738
2.4235537135594822,1,Esmee,111.328125,488.0,-17.500392520000002,0.8127868659390001,-0.289137443601,0.034681449863573,0.868768601684,1.666720998,88.355365535,0.03204807210816224,0.6028727893948505,0.7447735182858178,73.83362306118799
2.4184185597351293,1,Esmee,158.9673913043478,489.0,-18.136498644,0.6423105092544554,-0.2079693085515841,0.0538846742752772,0.681850119850495,1.7166085745,87.96671665,0.05647601837538917,0.571525268339596,0.5800511261738174,72.62823259697348
2.525793828302292,1,Esmee,704.1015625,490.0,-21.35060181,0.544491687329,-0.1991832391936256,0.01719404752818,0.606525385844,1.6692676725,87.63619516,0.33600400600901353,0.4131331968462787,0.4939678245310232,75.6294210785838
2.490690816456113,1,Esmee,965.0135869565216,491.0,-21.93100833222222,0.4318140608821782,-0.139021290590198,0.0402318888727376,0.4563274802980198,1.7081480415,88.01580058,0.46979164398772066,0.3845305706656698,0.383665034963307,77.0795200074489
2.4685675611776,1,Esmee,205.078125,492.0,-20.653997996666664,0.3575630496277227,-0.1187056145333663,0.0344982539369621,0.3799076349653466,1.7090843625,89.98443007,0.08012018027040561,0.44746206412446465,0.31542532592027533,69.49535098226389
2.469067170395974,1,Esmee,117.1875,493.0,-21.722902733,0.294400627661,-0.0990553327096,0.034082870400213,0.313037749187,1.714055375,87.89477485,0.03505257886830245,0.3947860837116892,0.2571411117203926,67.49561347566946
2.464578221344816,1,Esmee,114.1304347826087,494.0,-21.29616373333333,0.2450110571548515,-0.0880396300766039,0.0334774863962297,0.2673085004237623,1.706929994,88.18667899,0.03348501012388148,0.41581592334446915,0.212891675517233,67.36262468674913
2.46882479700274,1,Esmee,117.1875,495.0,-20.002701757,0.20373715015,-0.0750599764281,0.03161293634213,0.22072392748,1.6892893395000002,89.72272133,0.03505257886830245,0.47955815912473665,0.17476003257374453,67.85382974745285
