BrightnessEV_mean,trial,experimenter,Peak-Frequency_mean,Sound pressure level (dB)_mean,Linear Acceleration x (m/s^2)_mean,Linear Acceleration y (m/s^2)_mean,Linear Acceleration z (m/s^2)_mean,Absolute acceleration (m/s^2)_mean,timestamp,Inclination (deg)_mean,Rotation (deg)_mean,Peak-Frequency_norm,Sound-pressure-level_norm,Linear-Acceleration-norm,heart_rate
3.490742142539319,2,Esmee,87.5,-28.74275611,0.18329414730357,-0.914603505338,0.104461852492958,0.985404569361,0.0,6.4452677165,-11.257620495,0.02101010101010101,0.04771472169185691,0.7716237860700105,67.16576896906439
3.628523410270293,2,Esmee,71.2890625,-26.205454997,0.1724910245454257,-0.7341062716141633,0.1298506868989406,0.8413347539465347,1.0,6.0366594165,0.3461075099999995,0.012626262626262626,0.20118873195357528,0.6270849296191693,67.6834694729215
3.338172077006164,2,Esmee,81.52173913043478,-26.223823752222224,0.1278053377811,-0.7416589432684999,0.12813131128518,0.8333803043269999,2.0,6.433172621000001,4.4335819690000005,0.017918313570487482,0.20007765904503222,0.6256037935850466,67.76412852863051
3.031211926809176,2,Esmee,79.4836956521739,-27.197005345555556,0.1055571185532772,-0.6003146084035644,0.1647416016321485,0.7376505171405942,3.0,6.263751248,2.6621511515,0.016864295125164686,0.14121271744369399,0.5155685740238849,66.1563871040187
3.0590765302856004,2,Esmee,74.21875,-26.708060851,0.049640094678891,-0.5840860568162772,0.1316478315287128,0.7327258048277229,4.0,6.055456084999999,-4.25815371,0.014141414141414142,0.17078755662630318,0.490063181594785,66.2527844151022
3.7596263797855807,2,Esmee,78.46467391304348,-25.051975534444445,0.4256209466208,-0.3693371083434399,0.2390215868019,1.114131694218,5.0,7.916382799999999,-82.5984449515,0.016337285902503298,0.27095937051354535,0.4995062813778021,67.57430841523502
4.150120085103075,2,Esmee,71.33152173913044,-25.37772284888889,-0.1276594057626138,-0.65831295047,0.0960858590579009,1.1142381580237624,6.0,5.89443017,-7.4179280915,0.01264822134387352,0.2512558570347437,0.5539323854806881,67.6994937951399
3.129003778532377,2,Esmee,75.1953125,-22.220965282222224,-0.5335352969703699,-0.5315032635408999,0.147746451088328,1.047236984295,7.0,5.7801051975,-6.5687449255,0.014646464646464647,0.44219899764115284,0.6289655130978439,70.63104136940588
2.348272331384393,2,Esmee,98.84510869565216,-22.880385874,-0.2878942291939881,0.1776562386439603,0.2175663899109505,1.1549482351663367,8.0,5.8913370235,-9.150579653,0.026877470355731216,0.40231255209838007,0.3245630243845896,67.9618042273719
3.49986080792424,2,Esmee,95.703125,-20.68601660333333,-0.5846381536085,-0.0820843063414,-0.0535170797985199,0.968812524132,9.0,5.648142096999999,-8.763422238,0.025252525252525252,0.535043606461141,0.48339601891976636,70.79274193394232
4.675893046645056,2,Esmee,93.75,-20.42271179444444,-0.4920808946881188,-0.0413519779172356,0.1036653152490792,0.5830257862227722,10.0,5.6563364955,-5.603684719,0.024242424242424242,0.550970153268821,0.40987460697978734,70.37548717991264
4.287288786288706,2,Esmee,100.5859375,-22.800136376666668,-0.3900114561,-0.0435909568681811,0.0521595661912871,0.4785025713346534,11.0,5.579768789,-3.423190685,0.027777777777777776,0.40716661223106637,0.31928920747181533,67.99586856210287
5.046857067351069,2,Esmee,89.67391304347827,-23.48257858222222,-0.3145509488488,0.0137326043989699,0.10608403968077,0.431282886562,12.0,5.144946526,-5.648863254,0.022134387351778657,0.3658876558148033,0.2662412452437672,66.96326957876335
4.559386151159512,2,Esmee,87.63586956521739,-23.996904772,-0.2226416620163158,-0.0231933532094158,0.0533464988639009,0.4198525208623762,13.0,4.771989422,-6.0636975435,0.021080368906455864,0.3347775512539397,0.18112449621830773,65.88793396292286
4.262282586604039,2,Esmee,141.6015625,-24.05332145222222,-0.12033672212598,-0.05751901396123,0.088229484825999,0.3734359231113,14.0,4.8398123715,-7.1582386525,0.04898989898989899,0.33136506933959586,0.12261902002569972,65.93713097207873
4.670519844664884,2,Esmee,103.94021739130434,-23.25010249555556,-0.1068075626269604,0.0040090688757722,0.1326570667349406,0.2879529985530693,15.0,4.7652864505,-6.9760656700000006,0.029512516469038207,0.37994946232561905,0.13132001662130233,66.20020401025862
5.088377474342499,2,Esmee,74.21875,-23.27647443444444,-0.0419185486781309,0.0171680529992406,0.10466601387295,0.1693808296267999,16.0,4.401376840999999,-2.2845621579,0.014141414141414142,0.3783542999702657,0.08438861196685064,65.49818877820627
5.192798214269486,2,Esmee,64.19836956521739,-22.869090746,-0.0229782556409168,-0.010162277354394,0.079670999508594,0.1319058127493069,17.0,4.0799673235,-3.297461897,0.008959156785243741,0.40299576174255586,0.05896119076706369,65.48682180275205
5.1903834608209545,2,Esmee,63.4765625,-21.63883116111111,-0.0078500281283603,0.0090276349258613,0.083127873405,0.1515282717512871,18.0,4.0447869025,-1.430142567,0.008585858585858586,0.47741060796968365,0.05933245330262876,66.3753040937744
5.172605501882552,2,Esmee,66.23641304347827,-19.47645174222222,0.06873828553579,0.0018506141544399,0.09277184752656,0.3518365387252,19.0,4.0765423005,-7.1278380035,0.010013175230566537,0.6082066886650072,0.08558003888188126,68.18338407964647
5.18336624945126,2,Esmee,63.4765625,-18.472235706,0.6360273105811881,-0.0460502018744376,0.0406559856868613,0.7282497112128713,20.0,1.31084834905,17.025595884,0.008585858585858586,0.6689488140117009,0.5218959487326497,72.37427052971879
5.164812556974872,2,Esmee,79.4836956521739,-18.378886957777777,0.502287460505,-0.00939643955838,0.04327285738125,0.625662854496,21.0,0.5249710391,92.91955635,0.016864295125164686,0.6745952099672983,0.4095882888788436,71.70913473314162
5.238953191009933,2,Esmee,87.63586956521739,-13.603768411333334,0.5348225290069307,-0.0326808353799089,0.1206926272270594,0.7233096741762377,22.0,1.7573794875,-23.85235425,0.021080368906455864,0.9634283283713797,0.4471009670365193,75.55955505487782
5.15330365807904,2,Esmee,127.9296875,-20.5046102891,0.4226843795045,0.0002146510072199,0.1543586813324099,0.7261151236719999,23.0,0.5716231239,-48.23293707,0.04191919191919192,0.5460163500545366,0.364375540200843,70.30558436064501
5.196587645460516,2,Esmee,86.61684782608695,-22.73141323555556,0.4101256423950495,-0.0373831009278217,0.0911144868443366,0.4737079156059406,24.0,0.400062271,106.021351945,0.020553359683794466,0.4113234763927791,0.34087016066761133,68.07391019573012
5.144377161528349,2,Esmee,84.9609375,-22.726945497777777,0.3562750860425742,-0.0603405772993762,0.0977541333684257,0.4389765991554455,25.0,0.2347087075,32.38687425,0.019696969696969695,0.4115937169369704,0.3013257843377351,67.74367027188492
4.883528385762983,2,Esmee,67.2554347826087,-22.293455005,0.3178563436765,-0.096021350448,0.145070747652099,0.459782986286,26.0,0.31283271865,-119.836357545,0.010540184453227935,0.43781430384171993,0.2913354889932611,67.79525924711129
5.022707871283798,2,Esmee,72.265625,-22.66429336888889,0.2539634576613861,-0.1019485102837722,0.0701722034717623,0.3925084743676237,27.0,0.5421454317500001,-57.710506505,0.013131313131313131,0.4153833631176093,0.22479714826560349,67.0456038061624
5.161806095157185,2,Esmee,66.23641304347827,-23.91049591666667,0.2465587559699,-0.05616613198098,0.063211032452422,0.3542139888359999,28.0,0.42205963655,-72.233433265,0.010013175230566537,0.34000417314843423,0.2065782860843219,65.93293987106712
5.313032737626758,2,Esmee,62.16032608695652,-23.799127778888888,0.1967969547246534,-0.0259799030120673,0.0877803002711782,0.2941042639768317,29.0,0.2224800007,-34.69326261,0.00790513833992095,0.3467405098932389,0.17023268868795519,65.68085039502093
5.231944314675241,2,Esmee,75.1953125,-22.698593269,0.170673515948552,0.01937634790355,0.11258245974354,0.3228628345518,30.0,0.3015433424,29.324389565,0.014646464646464647,0.41330866130367916,0.1605064217462942,66.5366846025438
5.173346183030742,2,Esmee,82.54076086956522,-23.16523831888889,0.1420121963978514,0.0734978395299089,0.0699306266255168,0.3573333038392079,31.0,0.99862227185,65.90100996,0.01844532279314888,0.3850826510724577,0.13479473579030213,66.06825615505488
5.185205006849528,2,Esmee,68.359375,-21.70310706777778,0.1476809996053089,0.0416119674506534,0.0742452928444554,0.343407650680198,32.0,0.7248483376999999,48.79828015,0.011111111111111112,0.47352274416479295,0.13139771354112326,66.95567686052873
5.105724541239513,2,Esmee,151.83423913043478,-21.315774017000003,0.3367715761432099,0.0043564476482299,0.04221020194596,0.4580611607028,33.0,0.7156159006,1.272689750000012,0.054281949934123844,0.49695140082095357,0.2722358325065134,69.22694246858603
4.982819416074233,2,Esmee,103.515625,-20.419654496666663,0.5445209922722772,-0.0094133165568633,0.1935952661964356,0.6510642044485149,34.0,2.16064576,159.5412134,0.029292929292929294,0.5511550803742857,0.47105730326810547,70.96817797649486
5.076732569442374,2,Esmee,147.75815217391303,-18.75530384777778,0.67384959024,-0.01160206670352,0.17063113751849,0.756177754596,35.0,3.75690699,-8.966332949999995,0.05217391304347826,0.651826840323445,0.5687582854065694,73.41546662800346
5.1619597945471165,2,Esmee,134.765625,-16.818962436,0.7515143643306931,0.027341059170792,0.2020688948049505,0.9254672221920792,36.0,4.156805808,169.46399205,0.045454545454545456,0.7689505353310124,0.6383280041921783,75.24312136660049
4.95876887746274,2,Esmee,106.99728260869566,-15.95517992222222,0.3299214215806,0.0401171633277199,0.01731570470577,1.036634557055,37.0,2.9340153865,153.9171607,0.0310935441370224,0.8211982428278498,0.26670826547953924,72.60991592051096
5.126543817010225,2,Esmee,141.64402173913044,-18.72453699,0.2598636785364555,0.0115617176018613,0.1051993004360495,0.5285213252821782,38.0,2.72295771,156.2032051,0.04901185770750988,0.6536878386188836,0.2231906931181852,70.61001676252228
4.984255056543367,2,Esmee,111.328125,-18.605777046,0.1695741516899604,0.0661740696294653,0.0952008974497524,0.4244491527622772,39.0,1.2937515767,-160.3738219,0.03333333333333333,0.6608712843560697,0.16054275658784195,69.88146413164223
4.859299509663729,2,Esmee,128.39673913043478,-20.603158973333333,0.2326150824324,0.03809585108992,0.0103112022771499,0.33294242237,40.0,1.7734045125,158.5458622,0.04216073781291173,0.5400554250000316,0.18597846981203195,68.81170761475487
5.12240445324229,2,Esmee,110.3515625,-21.201203277777772,0.3390362282473267,0.0447926267692584,0.1131621892326435,0.4112993206841584,41.0,3.798606374,163.38357969999998,0.03282828282828283,0.50388145367002,0.2895584330792641,69.01961056524001
5.125280603297214,2,Esmee,87.63586956521739,-17.112067357,0.09595230746152,0.0256002758564999,0.06905757566996,0.2223564607863,42.0,2.0723256325,158.9264261,0.021080368906455864,0.7512214658788939,0.09014908503598215,70.1574576489637
4.845884721229011,2,Esmee,170.8984375,-20.348949438888887,0.4396499044455445,0.0297471851195742,0.0835678445401188,0.4621052288871287,43.0,3.8742831825,162.70184325,0.06414141414141414,0.5554318249464393,0.3631434903758274,70.85315810519218
4.954993353693172,2,Esmee,114.1304347826087,-19.359730014444445,0.1769163614406376,0.0304881731398811,0.1004271793208643,0.2713102440444555,44.0,3.999486015,167.7734802,0.034782608695652174,0.6152668485943706,0.16077980949032572,69.3650928329681
5.197750716495239,2,Esmee,166.10054347826087,-21.569992873,0.0751966424887466,0.01819138028756,0.074826660830318,0.1638173307862,45.0,2.5154288410000003,163.91167795,0.061660079051383404,0.4815744370405944,0.07904086663471967,67.64442175859256
4.9506131946573175,2,Esmee,113.28125,-19.771621177777774,0.5045167294227723,0.0241670122234663,0.0924321018895841,0.5242289596079208,46.0,4.6102591365,167.76688374999998,0.03434343434343434,0.5903527426948985,0.41729555147018005,71.1094660109689
5.0600587808481565,2,Esmee,110.05434782608695,-19.92510304555556,0.37858379320504,0.03552291462031,0.09669269213671,0.4110177842035,47.0,5.9178130685,168.59658845,0.03267457180500659,0.5810690681520436,0.3163363648846098,70.15701117300154
5.0215708169395175,2,Esmee,111.328125,-21.913642259,-0.148527517769198,0.0448971778083762,0.0959515931003465,0.2202289839642574,48.0,3.1013259,165.28260354999998,0.03333333333333333,0.4607880789992983,0.14138639374770595,67.32721476463989
4.983749918481595,2,Esmee,109.03532608695652,-18.673958612222226,0.21401336866706,0.02282363412092,0.05877063934513,0.3461178795397,49.0,3.601867875,162.93180875000002,0.03214756258234519,0.6567471784939642,0.17528320482947995,69.92618303221032
4.173802029232254,2,Esmee,96.6796875,-20.60604599555556,0.1192799165823762,0.0355330923363861,0.1207690289095544,0.3827996832059406,50.0,4.7579192865,165.41700505,0.025757575757575757,0.5398807973707407,0.13387438673879348,68.06471617751075
3.9668649280372175,2,Esmee,94.76902173913044,-19.330464773,-0.233044615981198,-0.0174322917212623,0.0607806372636475,0.3069595668117822,51.0,1.707506231,172.5274719,0.02476943346508564,0.6170370184582249,0.19058828041816242,69.4245391341457
3.94207103992068,2,Esmee,108.3984375,-17.89291085777778,-0.00344981484207,0.0263022812999896,0.058989430455684,0.2108090818498,52.0,2.361854594,158.38931225,0.031818181818181815,0.7039904995433801,0.043243147804677674,69.43019481332162
3.906931138396536,2,Esmee,135.5298913043478,-21.904655106666667,0.2190077213361386,-0.0182221155934257,0.0835441083181782,0.2705222694559406,53.0,4.490709786,164.4799118,0.045849802371541494,0.46133168586659623,0.1852860461690231,67.93526464718217
3.9042660735724697,2,Esmee,74.38858695652173,-21.14667250555556,0.0449367786157,0.007558954414335,0.09513877118728,0.1934684102439,54.0,3.516321606,164.1374806,0.014229249011857705,0.5071798624606566,0.0772550425889949,66.98878367047699
3.8253842783877374,2,Esmee,66.40625,-24.825384302222226,0.3129512499585148,-0.0530774828009504,0.1125090205072376,0.3679632741841584,55.0,4.6745776795000005,166.9249553,0.010101010101010102,0.2846652191891765,0.27001506731542896,65.77812337081374
3.305012034391388,2,Esmee,68.27445652173913,-25.486419676,0.347327031052,-0.0465595773909899,0.0925193881472,0.396773702693,56.0,5.796999717,168.9657149,0.011067193675889325,0.24468110015074793,0.2914107172333821,65.48880281319381
3.2203483098331165,2,Esmee,78.125,-26.410158552222224,0.412774748410891,-0.0469484185727629,0.1420634593982039,0.4685610755396039,57.0,6.400548109000001,168.77376515,0.01616161616161616,0.18880680559338853,0.35526381758439507,65.43102453102814
3.336555466729053,2,Esmee,78.46467391304348,-24.42019726333333,0.3815592508752475,-0.0581955504624257,0.1170618826115445,0.4132526997465346,58.0,6.7727339715,169.242695,0.016337285902503298,0.3091738119792628,0.32549181511702563,66.64076598273742
3.80290095070763,2,Esmee,91.796875,-27.160341193,-0.07803230788999,-0.0019022189606239,0.08543083784339,0.2343756144557,59.0,5.6086404615,169.7583426,0.023232323232323233,0.14343042605412196,0.08578225681299774,62.87206963179991
3.992442105738595,2,Esmee,93.75,-26.36685963333333,-0.6502007333534653,0.0515631287088415,0.0543263648424794,0.6680234539148515,60.0,2.15788928215,99.355914855,0.024242424242424242,0.19142583204154168,0.5348257823259057,67.06056472795423
3.981844009104391,2,Esmee,294.4972826086956,-22.920399054444445,-0.671382249425,0.04082359003153,0.062878220629582,0.683468975365,61.0,0.4291633971999999,59.653590845,0.12806324110671935,0.39989227047131154,0.5523732771515645,71.77895828500264
4.006353362138172,2,Esmee,760.7421875,-22.81171036,-0.5578048458613861,0.0381049216637702,0.0405242322882435,0.5638590642445545,62.0,0.4841035882,34.58931984,0.3691919191919192,0.4064665354338082,0.4565411373792497,75.91376590807808
4.010937955301866,2,Esmee,92.73097826086956,-22.308815304,-0.4644455061579999,0.032492948144017,0.0513599425424938,0.471751460789,63.0,0.50371764295,34.6373664,0.023715415019762844,0.43688520375412254,0.3797255251189695,68.75473494639648
4.228241385469032,2,Esmee,104.4921875,-23.22139014555556,-0.3879470629643564,0.0271991328462495,0.0467777078521802,0.3982256215069307,64.0,0.5186277758,38.188315855,0.0297979797979798,0.38168618938413035,0.31579830511207996,67.7025803094658
4.253689701946349,2,Esmee,154.8913043478261,-24.123883603333333,-0.321560010949505,0.02115034818359,0.0595114846346891,0.3401028341990099,65.0,0.5038463112,44.579208605000005,0.05586297760210804,0.3270969687786374,0.262458977621964,67.14209499836153
4.242113221821985,2,Esmee,77.1484375,-24.620884503,-0.264276787294,0.026433563531022,0.04816013563946,0.279031965668,66.0,0.4577810640999999,36.11311449,0.015656565656565657,0.29703482093787964,0.2143048818847323,65.59198821946373
4.233698655558664,2,Esmee,72.35054347826087,-22.711322725555554,-0.2341805993657425,0.0121044853021386,0.0780411952485247,0.3064960562113861,67.0,0.50622282195,37.038323775,0.013175230566534918,0.41253869327110165,0.19531241079393905,66.77646821693543
3.99405250129396,2,Esmee,54.6875,-23.118364587777776,-0.180141183998252,-0.0025778656654139,-0.008584344076763,0.5205539795899999,68.0,0.51128087635,42.620166785,0.00404040404040404,0.3879179075789455,0.1396595344665524,65.85309924748785
4.015360812038075,2,Esmee,84.5788043478261,-23.070419002222224,-0.2031780870176732,0.0276749170967128,0.1035186138190297,0.378622163610297,69.0,0.4786710825,37.676342535,0.019499341238471676,0.3908179974625844,0.18078056327297332,66.52604730050423
4.474973614594152,2,Esmee,58.08423913043478,-23.668845191,-0.1540612086337,0.0224863942084009,0.049756729565943,0.2370864789253,70.0,0.49775047985,36.308897295,0.0057971014492753615,0.3546209270530853,0.12556346716495656,65.37590089094218
4.479624222152106,2,Esmee,60.546875,-23.755533984444444,-0.1256578508187128,0.0189891526915485,0.059326735772493,0.1804877832237623,71.0,0.43370428285,35.30907323,0.007070707070707071,0.3493773725114101,0.10622699022729651,65.18375853336943
3.842231459761485,2,Esmee,50.95108695652174,-24.499446864,-0.146207293929594,0.008852242339899,0.0598534309627673,0.1956110050628713,72.0,0.42475754275,32.572548055,0.002108036890645588,0.3043802327057437,0.12121373850855219,64.66443343835026
3.4095182798697974,2,Esmee,58.59375,-24.975979334444443,-0.06810935902206,0.009190107944804,0.059560522163541,0.1364875832623,73.0,0.49036859115,31.770278675,0.006060606060606061,0.2755561609846856,0.06513290620976282,63.94894930270645
3.583133277452893,2,Esmee,61.141304347826086,-24.692536704444446,-0.0736290223663366,0.0058415254716594,0.0680046811555604,0.1178201372654455,74.0,0.4332077015,35.418880355,0.007378129117259552,0.29270078638304603,0.0730133151566304,64.24407854019479
4.139293158995652,2,Esmee,52.734375,-23.505669734,-0.06079843253267,0.008385651304307,0.055438913404633,0.1022265418888,75.0,0.45281413415,35.991874575,0.0030303030303030303,0.3644909387886921,0.05826684756765459,64.9006321066116
4.644058178381011,2,Esmee,59.10326086956522,-24.631589323333333,-0.055411100775895,0.0031912652077663,0.0664320522444465,0.1038526852597029,76.0,0.4223056779,33.32491976,0.00632411067193676,0.2963873172981774,0.061484721333853284,64.17500779168769
4.720141767092015,2,Esmee,56.04619565217392,-23.64207581888889,-0.044525719447806,0.005050327501655,0.062816854103648,0.1035150555806,77.0,0.4883734712,32.628924905000005,0.004743083003952573,0.35624012899527113,0.05364659381883712,64.798915958573
4.701548591813987,2,Esmee,46.875,-23.171983405,-0.0390968151397623,0.000763103615,0.070760659149792,0.1001230187654455,78.0,0.45768191155,32.373021055,0.0,0.3846746603102542,0.0567175610859808,65.0698364124109
4.671162162999478,2,Esmee,92.73097826086956,-22.975203204444444,-0.0309429289971021,0.0038791749329831,0.0549516927119009,0.0883465198690099,79.0,0.4319545865499999,24.101156505,0.023715415019762844,0.3965773258490945,0.041996453761573696,65.56920784067698
4.688189214075535,2,Esmee,245.1171875,-23.37884600222222,-0.027897113751945,0.0005121378849925,0.066586589116038,0.0816088327255999,80.0,0.4403629089999999,28.95050007,0.10252525252525252,0.372162139740194,0.049507689141194425,66.91251224051693
4.643565537717352,2,Esmee,423.9130434782609,-23.02464974,-0.0271436995409738,0.0010172157916188,0.0594095404552475,0.072323605810594,81.0,0.5138782320999999,31.43517228,0.19499341238471674,0.39358644783844826,0.04378066598532341,68.9731509496383
4.158321895755117,2,Esmee,428.7109375,-25.649197975,-0.023362780008391,2.493143142869972e-05,0.06478088706115,0.0756429570751,82.0,0.5477458326,44.69809373,0.19747474747474747,0.23483511135457663,0.04673132787879619,67.14136690878024
3.893290354679019,2,Esmee,52.98913043478261,-25.156720127777778,-0.0164533545683118,0.0019899297857727,0.0674983643833168,0.0764808767679208,83.0,0.4236253547999999,14.1748514665,0.00316205533596838,0.2646236728268438,0.04726330315047471,63.61683160584529
3.7134775278034495,2,Esmee,888.671875,-25.58290371,-0.016883888552216,-0.008592340144672,0.058979975509115,0.08820751501061,84.0,0.4012527589,34.481601555,0.4353535353535353,0.2388450598209899,0.04096626980463284,71.90094158335965
3.575720374396745,2,Esmee,455.5027173913044,-26.120163385,-0.0038762994500734,0.005913436817596,0.0719913475220891,0.1618655391253465,85.0,0.37599434955,32.869435615,0.21133069828722004,0.20634777502822604,0.049625690140237946,67.09979278720502
3.4588451278134484,2,Esmee,173.2336956521739,-25.59323836333333,-0.0270046729402881,0.0001438610445475,0.059198838065494,0.1328930333790099,86.0,0.3467175655,38.250172395,0.06534914361001318,0.23821994651315095,0.04356632778769353,64.51415285265962
3.2431317217813653,2,Esmee,505.859375,-28.17184926,-0.0032365237647653,0.0065276930486402,0.06451228936427,0.0888703104535,87.0,0.38582864705,40.95432761,0.23737373737373738,0.08224722684328052,0.043445442471047355,66.08200500936249
3.107698527326405,2,Esmee,67.2554347826087,-28.58768587444445,-0.0143758815431564,0.0019302140107524,0.0694812941519782,0.0823301449238613,88.0,0.38297562225,39.209467795,0.010540184453227935,0.057094472010414926,0.04849339503322413,61.283884513455334
2.9944201573550773,2,Esmee,67.3828125,-28.746338727,-0.0095033896990102,0.001859779297635,0.0578436802458499,0.07343618406012,89.0,0.3679208838,37.50160883,0.010606060606060607,0.04749801954507381,0.03821660567297321,61.087830292045886
2.980715956000616,2,Esmee,61.141304347826086,-28.85337803,-0.0113530874267067,0.0025389728422742,0.0723002947154653,0.0819448263478217,90.0,0.3820026896,35.85271761,0.007378129117259552,0.041023521503489285,0.05036955937373132,61.04280131537691
3.0867378577236053,2,Esmee,61.5234375,-28.61466032555556,-0.008954327378203,0.0035263081176739,0.05847572917383,0.0790302300081,91.0,0.3967310901999999,35.99007302,0.007575757575757576,0.05546286543229947,0.038728084573941876,61.12689421329428
3.181571714992037,2,Esmee,60.12228260869565,-28.350849093,-0.0072637618993118,0.0024872470555826,0.0662097017351782,0.0772494798835643,92.0,0.3579457888,37.234790125,0.0068511198945981535,0.07142004434375972,0.04488809685900879,61.35316770488915
3.3403721492073104,2,Esmee,62.16032608695652,-28.782722344444444,-0.0072344896382801,0.0044690880723376,0.067864961646091,0.0815593025012574,93.0,0.357348151,30.149664335,0.00790513833992095,0.045297279692630886,0.0463401718600822,61.072391497990644
3.538369420229345,2,Esmee,66.40625,-27.71034587444445,-0.00913647143493,0.00103926583797,0.06107054221472,0.0933253082428,94.0,0.3507020517,32.64095414,0.010101010101010102,0.11016223266094838,0.040808852491355734,61.85043781388243
3.3494186255302973,2,Esmee,72.35054347826087,-27.915023066666667,-0.0044412475828524,0.0032590603448589,0.0651033159031455,0.0752553427437128,95.0,0.36428948585,32.935476245000004,0.013175230566534918,0.09778190092242986,0.04379010164214649,61.78720823553703
3.5891707740832044,2,Esmee,65.4296875,-28.491898041,-0.0067327633067295,0.005037150069947,0.0603542466046099,0.0797730738428,96.0,0.39395508235,34.590697755,0.009595959595959595,0.06288840118093408,0.04012395152399215,61.26757161828234
3.474331066983981,2,Esmee,73.3695652173913,-28.452097002222224,-0.0071202015384209,-0.0009844518451003,0.0629352551832158,0.0751534139683366,97.0,0.38832610925,32.46747242,0.013702239789196307,0.0652958509717809,0.04213024513445993,61.39463696852098
3.5604378261524823,2,Esmee,64.453125,-28.77570281111111,-0.0047600179954359,-0.0004239679024399,0.06363368673921,0.074364649963,98.0,0.3722227043,32.28101484,0.00909090909090909,0.04572187097401762,0.042520698255870355,61.07064621955335
3.4383316252161094,2,Esmee,61.141304347826086,-28.868343538888887,-0.0078055429741584,0.0036483450592249,0.0656531336478475,0.0981095565065346,99.0,0.3784044032,36.362919795,0.007378129117259552,0.0401183011285731,0.04452364104366373,60.98517132423738
3.4827791723239327,2,Esmee,52.734375,-28.384093044000004,-0.0018838759120742,0.000196246089698,0.0606685559845742,0.078583931940594,100.0,0.314351426,35.90304998,0.0030303030303030303,0.06940921383934158,0.03992471700862218,61.212914362747135
3.2851046172267657,2,Esmee,59.10326086956522,-28.16148596333333,-0.0060022249740895,0.002896224767449,0.0590678883964503,0.0724101092173,101.0,0.4039438131,35.091197375,0.00632411067193676,0.08287407270355956,0.03887836867110964,61.431998035250324
3.488086627009735,2,Esmee,75.40760869565217,-28.743430975555555,-0.0036119137574148,0.0001376554331445,0.0634608561870217,0.0734789325444554,102.0,0.4235528670499999,33.34754542,0.014756258234519103,0.04767390102509882,0.04231302875738162,61.20571620705062
3.659740212106658,2,Esmee,60.546875,-28.152310708,-0.007811360074856,0.0037554515454799,0.063653754382629,0.0749815167221999,103.0,0.48142459695,-53.821974045,0.007070707070707071,0.08342905737761593,0.04287761066703357,61.4855837152818
3.754928642896311,2,Esmee,50.95108695652174,-27.776246342222223,-0.0088233691781366,0.0014389521909504,0.063100245080998,0.081297993500396,104.0,0.8007943910499999,-87.52310062000001,0.002108036890645588,0.10617610385023754,0.042451952655744855,61.65588960526172
3.8535384385941134,2,Esmee,62.5,-27.984146142222222,-0.003734234740815,-0.002208995664554,0.0578824531333109,0.0946353953486,105.0,0.5826916305,-54.48247549,0.00808080808080808,0.0936008458821821,0.03771335470758008,61.58653314986299
3.782459585115933,2,Esmee,62.16032608695652,-28.506990404,-0.001942531879655,0.0060298343561683,0.061128401860594,0.1387690685383168,106.0,0.49811645215,-76.75626934,0.00790513833992095,0.061975507767508264,0.04055619453421388,61.22625841628223
3.603694715567216,2,Esmee,82.03125,-29.00952660222222,-0.0047906878284504,-0.0020942914586415,0.0632010719196831,0.1144147177784158,107.0,0.7158864110000001,41.157420315,0.01818181818181818,0.031578545716894134,0.04219073081958862,61.080104758795805
3.4331169971362727,2,Esmee,80.50271739130434,-28.455302198888887,-0.008595039365334,-0.00121935715593,0.066971838767605,0.11543160601364,108.0,0.4714012111,-96.630401675,0.017391304347826084,0.06510197789002883,0.045620485406584865,61.49401370488955
3.572344838793357,2,Esmee,84.5788043478261,-28.430843156666665,-0.0096594457547801,0.0033253357841426,0.0602186793149772,0.0826792618694059,109.0,0.48369544275,-100.55837048,0.019499341238471676,0.0665814346552398,0.04024221665885996,61.51090177390319
3.568341063035505,2,Esmee,53.7109375,-27.525761616,-0.0041302001446661,0.001837446039868,0.06265613753233,0.0714817524376,110.0,0.402299056,-99.26113191,0.0035353535353535356,0.12132720091383349,0.041692352545260034,61.86017230203515
3.731478012492405,2,Esmee,67.2554347826087,-27.397593308888887,-0.0044503900088953,0.0013797227191572,0.0613813315711188,0.07410694259,111.0,0.4334605193999999,-97.579491885,0.010540184453227935,0.12907973134075654,0.04064131574569559,62.0848909911192
3.769313386220104,2,Esmee,80.078125,-27.33749249222222,-0.025625137180582,-0.001929059301639,0.063089422058857,0.0893129514319999,112.0,0.4116032144,-93.369969205,0.01717171717171717,0.13271505601963607,0.04611233573136294,62.30491370152088
3.661803810136232,2,Esmee,73.3695652173913,-25.884747404,-0.796089436539604,0.0438976221617722,0.0542733288564138,0.810629920350495,113.0,3.9060366985,-8.918245715,0.013702239789196307,0.22058740724950704,0.6553778128606627,68.16411618566332
3.5458007727597485,2,Esmee,76.171875,-26.30117303333333,-0.7207099043554456,0.1042023731447722,0.1069682452710297,0.747487100569307,114.0,5.412663111500001,-5.478450840000001,0.015151515151515152,0.19539902460855937,0.6027662588189865,67.46994866888491
3.673306041916719,2,Esmee,78.46467391304348,-27.183137502222223,-0.3793999150413,0.03030750415173,0.11369340147673,0.510188211858,115.0,4.653701893499999,-5.148933982,0.016337285902503298,0.14205154320195465,0.32040236986476195,64.59458319539162
3.808889589563766,2,Esmee,57.6171875,-26.337017912,-0.6317908772782178,-0.1096605580845346,0.0026416215068336,0.7445222417019801,116.0,5.1740535445,-5.233023559499999,0.005555555555555556,0.19323087150756066,0.5237759772289757,66.62008938703364
3.8146387697431847,2,Esmee,67.2554347826087,-24.463814352222222,-0.4461766285646,0.0651376236676998,0.1028400863028669,0.6722146638200001,117.0,5.0374559235,-4.107482001999999,0.010540184453227935,0.30653554034747943,0.37479170224402064,66.88756379118648
3.6566220914883463,2,Esmee,74.38858695652173,-25.23316647333333,-0.3847977815594059,-0.0169350565859633,0.1085929086128712,0.4544992947059406,118.0,4.9978459925,-3.5885101615000004,0.014229249011857705,0.2599996543521931,0.3228685047952275,65.98752887082529
3.1883664232479503,2,Esmee,65.4296875,-24.627265975,-0.29671243729,0.015727305597699,0.076067475076043,0.326377798744,119.0,4.999766399,-5.498483862,0.009595959595959595,0.29664882414223126,0.2449629684125994,65.71140882892676
3.170811201588142,2,Esmee,72.35054347826087,-24.03069539625,-0.2607989812148514,0.0023458177053564,0.0938585041000396,0.2928105318207921,120.0,5.0332128685,-4.2433124965,0.013175230566534918,0.3327336540647872,0.22035363445753336,66.01913753576841
3.09077472562783,2,Esmee,68.359375,-24.408927685555557,-0.177322002980099,0.0291992878514475,0.0840962012645386,0.2131801227049505,121.0,4.8930088715,-2.1133812575,0.011111111111111112,0.3098554761643488,0.15470264082082757,65.17810906276102
2.9253101410996702,2,Esmee,69.29347826086956,-24.259962124,-0.1389278039552,0.018864117110499,0.0868527637471243,0.2057368120666,122.0,4.9524432985,-0.9258001555,0.011594202898550723,0.3188659723981949,0.12679181161438877,65.07261021966447
2.7260588164741395,2,Esmee,74.21875,-25.150669364444447,-0.0638026784063524,0.011934387251599,0.102380948281198,0.1639507233539604,123.0,4.6547491405,-4.131894396,0.014141414141414142,0.264989666011158,0.0903689956523442,64.18565624018093
2.758464692556428,2,Esmee,65.21739130434783,-23.12189059555556,-0.0145769664606305,0.002274980259602,0.06244449756282,0.13356037477845,124.0,4.4544908225,-3.4374342365,0.009486166007905139,0.38770462956038565,0.04281307670025312,65.18468348848475
3.140082643876742,2,Esmee,66.23641304347827,-23.404124608888893,-0.0144048831550297,0.0130664773383683,0.1008682504329207,0.1750058631582178,125.0,4.3437261715,-6.7437180305,0.010013175230566537,0.3706331098906877,0.07495262441539279,65.24748181862273
3.157907479246969,2,Esmee,83.0078125,-22.289682756,-0.030080940989544,-0.00632731825546,0.10438747590987,0.2034817896227,126.0,4.2937081425,-4.9475133025,0.018686868686868686,0.4380424762800518,0.0800310336059674,66.27049535794573
3.563021503000501,2,Esmee,70.3125,-24.209383542222223,0.0094085339882722,0.0506594314420297,0.0744594456701089,0.2492470300550495,127.0,4.1085943005,-1.534792754,0.012121212121212121,0.32192532461264606,0.06480368929147654,64.6239576521078
4.064279832409231,2,Esmee,82.03125,-23.026702934444444,0.0034632417873715,-0.0319218517433069,0.0814719477240473,0.2502723640582178,128.0,4.3539416015,-6.9878112130000005,0.01818181818181818,0.39346225604125823,0.06232174245096492,65.58375737573918
4.377065783887247,2,Esmee,69.29347826086956,-23.579774651111112,0.0262897872603879,-0.011692909201769,0.08314052440915,0.2161810736809999,129.0,4.208499777,-6.2881878605,0.011594202898550723,0.3600085465527516,0.0626614205670317,65.05327798114028
4.957101671606908,2,Esmee,75.1953125,-22.807622063,0.031425510269695,-0.013149778494792,0.070755124558897,0.1542058608451485,130.0,3.9965526575,-6.2364049405,0.014646464646464647,0.4067138247021241,0.054785562696454286,65.61177969092641
5.071797551247483,2,Esmee,70.3125,-21.37532400111111,0.02139306903595,-0.003983800118811,0.091940326683723,0.1387844311575,131.0,3.934204857,-7.406912128,0.012121212121212121,0.4933493944111793,0.06808040595228655,66.70726022297669
4.871254676305735,2,Esmee,63.4765625,-22.777169942222223,0.0727642727262079,0.0154881026473277,0.1002883687403425,0.1751702426609901,132.0,3.6275392925,-5.6704004675,0.008585858585858586,0.4085557854661793,0.09340758040307,65.82164724053588
4.736567086773456,2,Esmee,60.12228260869565,-20.973727077,0.0441160956773329,0.006272916340673,0.08705558611724,0.1455820820761,133.0,3.7088692165,-7.1361917315,0.0068511198945981535,0.5176408315355767,0.07084455924109657,66.91546885024766
4.731117410989132,2,Esmee,63.17934782608695,-20.87674280222222,0.034203022013298,-0.0041366944870396,0.0525090328482227,0.1406864037234653,134.0,3.8564978225,-8.258222621,0.008432147562582343,0.5235071299840377,0.041678626664889695,66.78415752437922
4.255542554744929,2,Esmee,70.3125,-21.40984251444445,0.0147225396604128,0.0038983777515445,0.0752919386586732,0.2300929612887128,135.0,3.7495478925,-9.256044802,0.012121212121212121,0.4912614693153375,0.0533587669427295,66.56443200975013
4.22474030685583,2,Esmee,72.35054347826087,-21.565272378,0.012020974548811,0.00151034649342,0.01033364387535,0.507612708745,136.0,3.2595022225,-9.310819381999998,0.013175230566534918,0.48185996613856336,0.0026078861256301333,66.0666872939985
4.057540349559624,2,Esmee,78.125,-23.82778603111111,0.5473766504485149,-0.0186470243576633,0.1205860168504257,0.6301784326445544,137.0,1.7748436585,-41.821943145,0.01616161616161616,0.34500705505293583,0.4567414016625757,68.11724819716815
3.363020584810525,2,Esmee,62.16032608695652,-22.364443275555555,0.541344115064,0.0910594820212599,-0.0140719325819,0.635355680311,138.0,0.6092434287499999,-107.3103323,0.00790513833992095,0.4335204285472644,0.44700491439224327,68.93638722450353
3.245152269597866,2,Esmee,127.9296875,-22.88496593111111,0.3483721608712871,-0.0197312146811841,0.1336636909646148,0.4513300036851485,139.0,0.4196406603,-116.15242445,0.04191919191919192,0.4020355176823747,0.30075715753435645,68.06886731084718
2.8519437328856885,2,Esmee,105.97826086956522,-20.252453119,0.335455527237,0.024348964637936,0.06150149370211,0.394766077326,140.0,0.9453157358,-93.868104895,0.030566534914361003,0.5612686084141039,0.2743030130794672,69.5409781038922
3.180818138657717,2,Esmee,112.09239130434784,-21.78520949555556,0.5331562241544554,0.0516110371149099,0.0527457003477445,0.6017918723455445,141.0,1.32464799,-140.59220785,0.03372859025032939,0.46855660562541374,0.4379283379547678,69.8006777761497
3.369263366369021,2,Esmee,159.1796875,-19.16871064777778,0.5329309120524752,0.0199962190572118,0.0829547263492505,0.5580686880346535,142.0,2.9245921905000003,-168.92846105,0.05808080808080808,0.6268210579429506,0.43916179373298253,72.19676320679542
3.383183076876409,2,Esmee,155.91032608695653,-22.467948731,0.442011972791,-0.02560069917636,0.1019804929712199,0.471612215222,143.0,3.046436577,-168.47478295000002,0.056389986824769436,0.42725968272973613,0.36800785769507416,69.19897879081282
3.704693374301918,2,Esmee,87.890625,-18.574157814444444,0.5130999904356436,0.0157144781827861,0.0539545687657712,0.5271332161623762,144.0,3.266862994,-171.3460576,0.021212121212121213,0.6627838402775414,0.4195334765055303,71.73391631961717
3.6892099429643137,2,Esmee,133.49184782608697,-19.82324341777778,0.376001062886,0.0033909708400509,0.04524418766237,0.388607427087,145.0,3.436556309,-173.2162432,0.04479578392621871,0.5872302626112769,0.3049852450012667,70.38256078986983
3.4586757511258623,2,Esmee,105.46875,-20.187966832,0.3987081508306931,0.0210947332393909,0.0801218835178841,0.4545535278544554,146.0,4.230851139,-172.82046524999998,0.030303030303030304,0.5651691975172537,0.3287359181424199,70.01797832140701
2.9946419211348254,2,Esmee,133.49184782608697,-23.222053607777777,0.16788708449657,-0.0056911790479,0.06956220792495,0.2433258924393,147.0,3.070555299,-172.0131783,0.04479578392621871,0.3816460584720446,0.14087037211885536,66.60263135713976
3.912744903392592,2,Esmee,65.4296875,-23.003474404444447,0.2219713528311881,-0.017515839063,0.0582559369119604,0.2527747103149504,148.0,3.9890238965,-171.06943554999998,0.009595959595959595,0.39486728267893983,0.18115844815004906,66.37959416926687
4.112232100945586,2,Esmee,71.33152173913044,-23.49869167111111,0.1789855109598019,0.0019373441953267,0.0705975623592871,0.2231228966438614,149.0,3.430902294,-169.47056709999998,0.01264822134387352,0.3649130216427647,0.14970345131343402,65.82954829709811
4.6209735307212645,2,Esmee,68.27445652173913,-23.985998088,0.118139114459239,-0.0430125481104355,0.08569058286231,0.2036357384515,150.0,4.0783881485,-168.8381168,0.011067193675889325,0.33543726504335214,0.1161452284854698,65.17575288192177
4.744676071542759,2,Esmee,70.3125,-23.94981598777777,0.2672121014998713,-0.0302287311313599,0.0450606642908287,0.3419440033038614,151.0,4.139755731499999,-171.86209674999998,0.012121212121212121,0.33762581570150835,0.21658773763489203,66.02663593192148
4.423801713475821,2,Esmee,68.27445652173913,-23.543250535555558,0.251774407641,-0.0263859672603899,0.10056297002372,0.3343143212609999,152.0,5.2262234355,-173.5612626,0.011067193675889325,0.3622177847298262,0.21636286422849196,66.29886020410363
3.4226495087738136,2,Esmee,66.40625,-25.22216112222222,0.2141000821367128,0.0291564511731851,0.0740955230723861,0.3140768206908911,153.0,5.1973991305,-171.1455317,0.010101010101010102,0.2606653362299593,0.17971768007257438,64.76774567736031
4.038605736850524,2,Esmee,75.40760869565217,-23.7370242,-0.17770539156107,-0.00024497847728,0.0633489682646099,0.322698768563,154.0,3.546572858,-166.9550067,0.014756258234519103,0.3504969758699606,0.1465732365096532,65.67367476720713
4.525283094010061,2,Esmee,126.953125,-23.08837260555556,-0.0592982787196831,0.0082166311828168,0.0802421103774356,0.2824108520825742,155.0,3.6136152435,-168.72840630000002,0.04141414141414142,0.38973203589180444,0.07277473659771537,66.0872651517662
4.734662908341592,2,Esmee,63.17934782608695,-21.54739010111111,-0.2366514120696257,-0.0005350807489405,0.0481048463363168,0.3425023710509901,156.0,2.180791291,-160.558686,0.008432147562582343,0.48294161337888775,0.19060603724946873,67.48879060979405
4.516222771809897,2,Esmee,91.71195652173913,-25.150281491,-0.1791112241872,0.005584162806507,0.091964247643094,0.2357635919954,157.0,2.1869867265,-158.0831825,0.023188405797101446,0.2650131273546651,0.15720730465203797,64.90158408141431
4.840153215435632,2,Esmee,71.2890625,-25.032400214444447,0.0251495487968613,0.0178961961010445,0.0666972147882376,0.2127187903488119,158.0,2.617139194,-164.13771359999998,0.012626262626262626,0.272143425037923,0.050588937790903475,63.92295785530756
4.922218573624767,2,Esmee,65.21739130434783,-25.226239668888887,0.38151429215649,0.0212740104853036,0.069293095671767,0.412115479541,159.0,5.320814137999999,-174.33336645,0.009486166007905139,0.2604186367311235,0.31299509304030176,65.818707705254
4.263385546391601,2,Esmee,74.21875,-25.23268220888889,0.0021977975751147,0.0028673495421188,0.0698917050148515,0.2214162764039604,160.0,3.9758096985,-171.60952375,0.014141414141414142,0.260028946108672,0.047664827108023534,63.78449425299654
3.566288461352046,2,Esmee,67.2554347826087,-25.437141823,0.0620489844019,0.00937315192442,0.0772420462124,0.1785496247984999,161.0,4.0872324335,-171.33114640000002,0.010540184453227935,0.2476617750411851,0.07228072735637309,63.760990808409765
3.5182444634800074,2,Esmee,71.2890625,-25.17690637666667,-0.1460050171784158,0.0205120223316564,0.0552296786062277,0.2480664671928713,162.0,2.781538882,-169.8199349,0.012626262626262626,0.2634026649798657,0.12055674657781418,64.37781120490615
3.8594465481521008,2,Esmee,67.2554347826087,-25.80766024555556,0.0335154829890594,0.0057552479233702,0.0719117211807792,0.221655569710396,163.0,3.498040167,-172.0274842,0.010540184453227935,0.2252501866435381,0.05563410391791252,63.35887876013032
3.505883187466993,2,Esmee,81.0546875,-25.63966282,-0.1802455091977,0.005277882268939,0.07083858493544,0.2232260447435,164.0,2.856570032,-168.7216984,0.017676767676767676,0.2354118653191806,0.15080597218040012,64.38492551480871
3.4971363342920347,2,Esmee,66.23641304347827,-24.60299336,0.0018548524103465,0.0108467041688477,0.0607599057003693,0.1573318718638613,165.0,2.996290107,-171.19095445,0.010013175230566537,0.2981170044636376,0.04080002120211198,64.10406772779187
3.6269892321338153,2,Esmee,70.3125,-26.74247034333333,-0.0339759977295,0.004815484591484,0.0735468865857899,0.1815912137676,166.0,3.6354409495,-171.55224715,0.012121212121212121,0.16870622589562684,0.05697729720497987,62.722717330811605
3.9228798886045193,2,Esmee,71.2890625,-26.571446517777776,-0.0343590364708435,-0.0022530512344673,0.0755008926716633,0.140367492300396,167.0,2.929077095,-171.8983161,0.012626262626262626,0.1790509627594661,0.058497043805928635,62.86911315608627
4.010978368731118,2,Esmee,70.3125,-26.401043279,0.1877565824105,0.006126787203957,0.07136146635201,0.2346901698585,168.0,3.547466375,-172.4384461,0.012121212121212121,0.1893581621229224,0.15682016246858949,63.769283487648025
3.981042312901079,2,Esmee,64.453125,-27.07674850555556,0.3090227916128713,-0.0142383134019821,0.0677207785712725,0.3297201666274257,169.0,5.3332224445000005,-174.24853654999998,0.00909090909090909,0.14848670609314493,0.2532682105873931,63.989804339635064
3.978148608591092,2,Esmee,69.29347826086956,-26.80825545222222,-0.1933772229476831,0.007847375894795,0.0783447294213643,0.2409865902033663,170.0,3.5805752925000003,-171.01287555,0.011594202898550723,0.16472707481065996,0.1633529102295867,63.51543223753563
3.9536707066455774,2,Esmee,86.9140625,-27.813938849,-0.1870286711224,0.004440543856287,0.061382268975866,0.2173352110243,171.0,2.766964781,-169.29339715,0.02070707070707071,0.10389619306536317,0.15343629128027306,62.88838606116796
3.582047197170332,2,Esmee,119.22554347826087,-24.51846621888889,-0.4917609380138614,-0.0064717444189326,0.064483534205198,0.5100264945871287,172.0,0.5360149410499999,-78.560190765,0.03741765480895916,0.303229806903921,0.40273516945654786,67.60899213467862
4.084325260113838,2,Esmee,452.44565217391306,-23.97129375777778,-0.3848840344999999,0.0028871542736339,0.0542373632126899,0.3925149199159999,173.0,0.5772906507,-113.55563815,0.20974967061923586,0.3363266874756579,0.31329378383068013,70.73726393273805
3.7579571952641446,2,Esmee,286.1328125,-26.2427162,-0.2951635837475247,-0.0087884461763415,0.0576750826093254,0.3053371702,174.0,0.5251617365500001,-96.53044942,0.12373737373737374,0.19893490948753595,0.24009786865793437,66.78274933786138
3.948688797057422,2,Esmee,85.59782608695652,-26.630136997,-0.228515025592,-4.930207808800016e-05,0.056953014813626,0.241967422843,175.0,0.49682159945,-97.466375195,0.020026350461133068,0.17550094531602325,0.18561672145502053,63.991472124655104
3.736175817824232,2,Esmee,85.9375,-27.734323195555557,-0.1735794148079208,-0.0047890107345841,0.0536971523326138,0.1892418249722772,176.0,0.49330102285,-99.61206451,0.020202020202020204,0.10871191381333485,0.14082170221495127,62.83515698752003
3.9054942354041353,2,Esmee,62.16032608695652,-27.29835515222222,-0.11726604487579,0.0019830010522861,0.0505692277370198,0.1591874720025742,177.0,0.4801711228499999,-100.097005935,0.00790513833992095,0.13508236058983525,0.09578403965020552,62.545363411078085
3.8561357782439103,2,Esmee,65.4296875,-28.438646741000003,-0.11620916624255,0.0047025073404937,0.0604981816650019,0.1476738136369,178.0,0.5135582678499999,-107.54958848,0.009595959595959595,0.06610941839516066,0.09859915706207209,61.7740254691577
3.564623509102116,2,Esmee,78.46467391304348,-28.708854742222226,-0.0749222927748217,-0.0103571141068514,0.0600398008322742,0.1601401678734653,179.0,0.49700649055,-97.139139815,0.016337285902503298,0.04976531743690051,0.0698203327159801,61.48249218902071
3.528219396724622,2,Esmee,78.125,-28.60447598,-0.050816488477991,0.0015774428349199,0.0624494092176199,0.1288470159559999,180.0,0.4879965794,-100.1100898,0.01616161616161616,0.056078887057125285,0.05645167649861638,61.44779237990676
3.175178811724865,2,Esmee,66.23641304347827,-28.510011599,-0.0470967468413732,0.0027482814534514,0.0470307649251881,0.1309297476912871,181.0,0.49234074785,-94.38561013,0.010013175230566537,0.06179276441471628,0.044856053391605616,61.30062510472077
2.9989218867458205,2,Esmee,73.3695652173913,-29.08447867222222,-0.0385617935742099,0.0049745665922,0.07003103767496,0.1271062004959,182.0,0.5329060096,-100.046140545,0.013702239789196307,0.027044911651398284,0.05609558985449153,61.04734845443664
3.233830916346555,2,Esmee,85.9375,-29.103140466666662,-0.0261721751174435,-0.0050380804113554,0.0519842539290099,0.0928403528734653,183.0,0.50745271125,-97.626371475,0.020202020202020204,0.025916113647332546,0.038024832287740416,61.01923242611032
3.3601234110984253,2,Esmee,81.52173913043478,-28.772570475,-0.022779652256151,-0.0003202689351069,0.0549186298924346,0.0746257769947524,184.0,0.5463006323999999,-105.23476596,0.017918313570487482,0.045911336931367654,0.03888986997352874,61.22042127437439
3.167690003575921,2,Esmee,85.9375,-29.39756923,-0.0230026260134739,-0.004012113797818,0.059870693563688,0.07947595120364,185.0,0.5057137838500001,-104.759879685,0.020202020202020204,0.008106968799034248,0.04289574868730141,60.84449001912723
3.0194726118584057,2,Esmee,67.2554347826087,-28.57696579444444,-0.0162189790058891,-0.0029824808935346,0.053258530107594,0.0663281854916831,186.0,0.5020909519,-96.94549848,0.010540184453227935,0.05774289866324629,0.03580342430362058,61.19014586745248
2.996621899155943,2,Esmee,68.359375,-27.557941833,-0.008508456719589,-0.0081798841308789,0.066566983402219,0.0867466929621,187.0,0.5146701979,-94.957905865,0.011111111111111112,0.11938071260435455,0.04568141235025868,62.020242072276545
3.052378889282038,2,Esmee,72.35054347826087,-27.40771427888889,-0.0227903959821782,0.0047704197724554,0.0580118301300524,0.0955174558709901,188.0,0.5195760202499999,-95.489642525,0.013175230566534918,0.12846754312009936,0.041435030500537165,62.136595372776185
3.2998251146985904,2,Esmee,135.5298913043478,-24.90649466555556,-0.008744352608277,-0.001653740594073,0.045755398036264,0.0820019904259,189.0,0.54059418285,-100.706385615,0.045849802371541494,0.2797590877604816,0.028185414733525854,64.49958841842482
3.518133759360788,2,Esmee,297.8515625,-25.141795147777778,-0.0097139777802138,-0.0022899100407304,0.0585777132402801,0.0767829056030693,190.0,0.5025567182499999,-95.9029154,0.1297979797979798,0.26552644172641976,0.03886100260858315,66.0931649175453
3.477364149393712,2,Esmee,87.63586956521739,-26.634978627,-0.0096665780921188,0.0008118341516386,0.055311342790893,0.0674200072056732,191.0,0.486514618,-103.22706081,0.021080368906455864,0.17520808911204497,0.03613874889347856,62.813214438621486
3.5797010091337804,2,Esmee,74.21875,-26.39121010777778,-0.0098288815759808,-0.0051576462015149,0.0593420935735199,0.0731237101369,192.0,0.50457438225,-107.27238605,0.014141414141414142,0.18995294222739323,0.039652324098097234,62.87948218234178
3.908045774929676,2,Esmee,85.59782608695652,-29.47088464555556,-0.0200629048547306,-0.0027642512988923,0.0531589132381287,0.0763924666626732,193.0,0.52045786855,-95.724629285,0.020026350461133068,0.0036723312301362343,0.03674763783886017,60.738576086695176
3.856330550100755,2,Esmee,100.5859375,-29.443505487,0.0155594609636759,0.0003657367612529,0.05970386080742,0.1233398089212,194.0,0.4920639087,-96.39704405,0.027777777777777776,0.005328417391760618,0.04075899949313328,60.94556856020175
3.823402328260416,2,Esmee,98.84510869565216,-28.892879895555552,-0.0027507691656881,-0.0021474626770345,0.0517846554595148,0.1000878398420891,195.0,0.4773272134999999,-96.73802142,0.026877470355731216,0.03863416783609502,0.03259373945654701,61.26190933680014
3.417257684388586,2,Esmee,74.21875,-26.33430097,-0.382568161079013,-0.008730262073883,0.06385600372295,0.4210207714848999,196.0,1.49643927975,-54.558674385,0.014141414141414142,0.19339521147582533,0.31267830504607835,65.10499726090681
3.368586615868111,2,Esmee,91.71195652173913,-27.943872225,-0.8754597343108911,-0.0283104629370623,0.0690953779230099,0.883246816909901,197.0,5.943913504,-4.858541401,0.023188405797101446,0.09603689872327939,0.7216319889440832,67.38926681217404
3.509566368242817,2,Esmee,65.21739130434783,-27.81623141777778,-0.727263762332,-0.0180576012466329,0.07394222853158,0.734582184441,198.0,6.336183929500001,-3.717320691,0.009486166007905139,0.10375752220666065,0.5987803978093119,66.22505676911253
4.1630486120927,2,Esmee,72.265625,-25.53212019555556,-0.6052767444920792,-0.0037995869451881,0.0565583744222376,0.6338828480851486,199.0,6.103682347,-4.315099529499999,0.013131313131313131,0.24191680782008998,0.49600787875199615,67.13369098648332
4.290709701129038,2,Esmee,83.55978260869566,-25.608829274,-0.315442864516,-0.0436886390206445,0.1319005412355643,0.570155692210891,200.0,5.8804849795,-4.8554674315,0.018972332015810278,0.23727689739241928,0.2766153440194281,65.43969216118066
3.9377565378118167,2,Esmee,62.5,-25.01332117444444,-0.315385968887,-0.0211706957718,0.089531232905781,0.373575135947,201.0,5.799414514,-5.135221423,0.00808080808080808,0.2732974610195976,0.26314804372558176,65.54637004365598
4.5987372685500825,2,Esmee,60.12228260869565,-24.953091543333333,-0.2433959042178217,-0.0073937166282811,0.0934279232439405,0.2687075001673267,202.0,5.9052703575,-3.677475425,0.0068511198945981535,0.2769405773118835,0.2067117736175386,65.11400351457488
4.865645457806488,2,Esmee,69.3359375,-23.687265018,-0.1789442570339,-0.020326075702224,0.10249481406074,0.226048421568,203.0,5.721917846,-4.588694857,0.011616161616161616,0.35350676496032724,0.16204098076053933,65.77073225793147
5.235001286053099,2,Esmee,74.38858695652173,-25.17572917777778,-0.1311453964942574,-0.007178931318856,0.0915861371559901,0.2018872566762376,204.0,5.7002048425,-4.0686786035,0.014229249011857705,0.26347387033796366,0.12278794620919936,64.42857499396631
5.494457153187503,2,Esmee,74.38858695652173,-24.205037157777777,-0.09331437521846,0.002170161197177,0.123040222478458,0.1903628069323999,205.0,5.599087886,-4.471677719500001,0.014229249011857705,0.3221882248444753,0.11805186957482458,65.09525863496945
4.368822564795996,2,Esmee,67.3828125,-23.237888044,-0.071221560496994,-0.0148664593170891,0.1119014253311919,0.2117446052613861,206.0,5.7808741050000005,-3.754624871,0.010606060606060607,0.3806882791943676,0.10057977497959097,65.58501876229035
3.200716725547972,2,Esmee,69.29347826086956,-22.62094218555556,-0.0120924218928019,0.0087131316126732,0.1013989749875049,0.2221435296935643,207.0,5.3204843275,-3.45566150505,0.011594202898550723,0.4180055508909362,0.07475467533397447,65.84598807133405
3.516536701685729,2,Esmee,71.2890625,-22.969309205555557,-0.015014511780933,0.00099747816029,0.08912053032395,0.1562725500234,208.0,5.589320393,-5.579268274,0.012626262626262626,0.3969338368052916,0.06466453805006328,65.53304759858926
5.406482540133431,2,Esmee,69.29347826086956,-21.520494612222222,-0.0049922919356841,-0.0020840623605702,0.1055032919650514,0.192609226400099,209.0,5.287365733,-6.2459856585,0.011594202898550723,0.48456844376042113,0.07738283701408016,66.6657680792087
5.717629894597567,2,Esmee,70.3125,-22.319594964,0.0513131114623825,0.0011265755494799,0.071530883575358,0.1609732281224,210.0,4.9423245255,-3.419718267,0.012121212121212121,0.43623317327930755,0.06271231244076031,65.97892082130201
5.455388359538612,2,Esmee,70.3125,-23.93647208888889,0.0787718902404703,0.0030927008183168,0.0926351565871336,0.1633902769986138,211.0,4.6448866075,-3.153827273,0.012121212121212121,0.3384329495747844,0.09071484155840112,65.02933836978886
4.915708626326027,2,Esmee,83.984375,-24.04807541,0.0829989888963999,0.003958406392436,0.10796738691421,0.1777423812639,212.0,4.446092535,-8.9122215125,0.01919191919191919,0.33168238726994376,0.10288500298397513,65.18710705494951
4.9224643892057305,2,Esmee,73.3695652173913,-21.05611122,0.0898345642666237,0.0107258472692891,0.0729671262381188,0.1627405887824752,213.0,4.4432754125,-5.456741075,0.013702239789196307,0.5126576528567028,0.0862077158649718,67.11559835698414
5.030728822846034,2,Esmee,60.12228260869565,-21.121456782000003,0.1015990011384752,0.0180263570746287,0.0873895094317029,0.2067718638153465,214.0,4.338414906,-6.802988968999999,0.0068511198945981535,0.5087050886925352,0.10203385867679104,67.0577543316167
4.854491666429563,2,Esmee,66.40625,-21.36299871111111,0.110367342590682,-0.0041980523318999,0.06432904346833,0.2267815825655,215.0,3.549459592,-10.98967567,0.010101010101010102,0.4940949155770539,0.09586328044273551,66.89806543248673
5.079021413339351,2,Esmee,59.10326086956522,-23.975312567777777,0.1152130744314851,0.0117555301061871,0.0843727803541386,0.2657091165765346,216.0,3.4271838645,-1.3698118419999998,0.00632411067193676,0.3360836012751201,0.10875746828912082,65.02954517505314
5.131512402706592,2,Esmee,64.453125,-24.182098146,0.10809443448381,0.011342836610734,0.1131131062530799,0.1998804295504,217.0,3.342891002,-10.459656413,0.00909090909090909,0.32357573936174655,0.12007710639157025,65.0253439052917
5.052194781178055,2,Esmee,64.19836956521739,-23.091283951111112,0.4260197690438614,0.0105594139533792,0.0221476434580396,0.563472265490099,218.0,2.545785896,-15.715287165,0.008959156785243741,0.3895559370143874,0.34498819096390143,67.61375990758873
5.301163674312199,2,Esmee,58.59375,-24.06343727,0.594705681223,0.031734924425664,0.03808293308655,0.620884930609,219.0,0.6631043316499999,22.88682615,0.006060606060606061,0.3307531927619684,0.4867090103700148,67.98392251731586
5.391524078823321,2,Esmee,67.2554347826087,-24.645029526,0.3810953537376237,-0.0027967168253564,0.0612525480902574,0.4207412108970297,220.0,0.9515744967,-103.0223783,0.010540184453227935,0.29557435828774903,0.31104272346339124,66.24603777622468
5.378090718105707,2,Esmee,63.17934782608695,-23.352376882222224,0.3533968154792079,0.0123137248922574,0.0812777970003772,0.4000060448108911,221.0,0.7141732358499999,-131.74999175,0.008432147562582343,0.37376318030005695,0.2917362921570066,66.98769145210838
4.95884272506801,2,Esmee,65.4296875,-24.010850657777777,0.2545546286779,0.011104637698704,0.04582913727341,0.330174594295,222.0,0.51703203605,12.308382150000009,0.009595959595959595,0.3339340049337962,0.20510273886880764,65.83994916207521
5.043641891463113,2,Esmee,64.19836956521739,-25.113050714,0.1823012227174257,0.0205315329933693,0.0252590163802475,0.2360690457128712,223.0,0.66706727525,-139.89600985,0.008959156785243741,0.26726510943991083,0.14367712397865107,64.53578144081301
5.360948886305959,2,Esmee,100.5859375,-23.241096784444444,0.13774794964839,-0.005423690947659,0.059255472917808,0.2166871464101999,224.0,0.54385792185,-121.73173255,0.027777777777777776,0.3804941917597409,0.1143948353564242,66.03664453952383
4.929055916494758,2,Esmee,75.40760869565217,-19.518817186666663,0.118591367128198,0.032087366143693,0.0363251498911306,0.2425282761055445,225.0,0.5472674829999999,-136.35689689999998,0.014756258234519103,0.605644125387793,0.09611152086944871,68.33174683629949
4.662946633843517,2,Esmee,125.0,-18.03570092777778,-0.0071846367714,0.196003069523896,0.0411265784055,0.8283808896089999,226.0,0.5325702905,9.940341749999988,0.04040404040404041,0.6953535409434839,0.15635851204707873,70.40319139577925
4.898358631843469,2,Esmee,128.39673913043478,-15.695278735,0.2808818760290099,0.3052407869660396,0.0817330808956732,1.115480379770297,227.0,1.2477972835,-74.58777734499999,0.04216073781291173,0.8369189143990744,0.3417035106634204,73.61986981435449
4.716031020863426,2,Esmee,105.46875,-17.124238928888886,0.523442888910896,0.1134842114289109,0.0587353044008811,1.1203708596574258,228.0,1.2656756327499998,-40.064950095,0.030303030303030304,0.7504852426772388,0.43840779023314724,73.11914584005265
5.232087800150784,2,Esmee,134.5108695652174,-18.85373466888889,0.16643555928743,-0.7662795196622,0.177283064532974,1.231283222734,229.0,1.8417976235,35.291219905,0.04532279314888011,0.6458730444685199,0.6593724209704003,73.93191176436304
5.568361778325164,2,Esmee,133.49184782608697,-17.285428675555554,-1.167698727422812,0.3107392215724356,-0.102010605330099,1.6119545931960395,230.0,4.948171518500001,-4.6430261,0.04479578392621871,0.7407353408200035,1.0,77.78473976836442
5.375114139654567,2,Esmee,78.125,-17.059664177777776,-0.68746881484623,-0.1081189984162799,0.3098433142287,1.22014961913,231.0,4.9400127825,162.18596580000002,0.01616161616161616,0.7543911827187645,0.6242355619960984,74.36981101182629
5.270258722673274,2,Esmee,87.63586956521739,-19.6768874,-0.9420021733841584,0.1046592709903663,0.0030051446479801,1.0247578655950496,232.0,4.6648860085,-165.50045640000002,0.021080368906455864,0.5960829150848862,0.7792768877341844,73.80881746102122
5.528044833176454,2,Esmee,150.390625,-22.61441983111111,-0.5564444933901,0.15023639357981,0.12114837923926,0.75449768879,233.0,4.772058605,-176.2604966,0.05353535353535353,0.4184000692584289,0.48020451100431955,69.93314398984278
5.117547337868844,2,Esmee,119.22554347826087,-20.888955137777774,-0.4033170326825663,-0.033497757708,0.0617290209044148,0.5382225283742574,234.0,3.844583364,-175.94038335,0.03741765480895916,0.5227684411060131,0.3305367949684275,69.66586874919876
4.772965643701541,2,Esmee,141.6015625,-18.53279335177778,-0.53910245247495,-0.03906257084661,0.03642369208939,0.688615036562,235.0,4.8208721375,-177.0205084,0.04898989898989899,0.6652858570603536,0.44084749344679963,72.49000821209663
4.495078484554284,2,Esmee,144.70108695652175,-19.778285084,-0.0570285911506732,0.0072779743238712,0.0790582576311287,0.4834534108921782,236.0,2.6331305245000003,-173.06308554999998,0.05059288537549408,0.5899496622695233,0.07080697954851232,68.65770949113227
4.620920325763804,2,Esmee,114.1304347826087,-19.689429634444444,-0.3409546409960812,0.0226477783250217,0.0575867607104158,0.6661803663376238,237.0,3.8529504945,-172.12420155,0.034782608695652174,0.5953242715766446,0.27814495005096146,70.06470303324048
4.839138026879777,2,Esmee,166.015625,-22.96436991,-0.31155668911112,0.00216822211929,0.08638940113552,0.542388151577,238.0,4.769785924,-174.38540975,0.06161616161616162,0.39723260051642373,0.2588047645669084,68.06955255505558
5.335743790779163,2,Esmee,126.3586956521739,-21.12837925222222,-0.2681734733118812,-0.0307711359232356,0.0918565853501594,0.3417273588952475,239.0,4.480281456,-175.57034775,0.04110671936758893,0.5082863684781792,0.22697958133372098,68.7374074597597
5.246954271388433,2,Esmee,165.0390625,-21.716656262,-0.0988761031279,0.0021972374646399,0.075944829725179,0.1760560473054999,240.0,4.477423242,-172.53705125,0.06111111111111111,0.47270319257020876,0.09326281289308014,67.64076303620936
5.140443164472103,2,Esmee,99.8641304347826,-21.039295904444444,-0.0472152055021782,-0.0030594991470703,0.0776501844132772,0.2084155072718812,241.0,4.046377705,-168.8916869,0.027404479578392614,0.5136747626900233,0.06512093950406402,67.23315425988065
5.033086802841711,2,Esmee,110.3515625,-19.965302384444445,0.013791922576803,-0.0026730005461499,0.0763145374787599,0.14935698205,242.0,3.704145854,-172.45556875,0.03282828282828283,0.5786375263387613,0.05400886105190209,68.032286861046
4.764565039158266,2,Esmee,79.4836956521739,-21.366897795,0.0863089598983465,-0.025701660736919,0.0818478426389009,0.2850089216225742,243.0,2.937596457,-169.9106521,0.016864295125164686,0.49385907126290896,0.09075948351827372,66.9896706258044
5.194989629172993,2,Esmee,70.3125,-21.89941249555556,-0.1024086552526336,0.0340135950213079,0.0764514125734356,0.2469406507787128,244.0,4.5333121255,-171.5005449,0.012121212121212121,0.4616487962589505,0.09955671555761224,66.57866352199255
5.403437707384066,2,Esmee,81.52173913043478,-23.01122505555556,0.08201305478737,0.001392761452785,0.08665739658106,0.1943888215468,245.0,2.7943028685,-170.0174005,0.017918313570487482,0.39439846819646973,0.08878389345566547,65.80141903741271
5.396260840715314,2,Esmee,81.52173913043478,-22.825493936666664,-0.3446149108772277,-0.0228924238687495,0.0616191337772277,0.3588272735564357,246.0,4.862064638,-173.5032754,0.017918313570487482,0.4056328067226417,0.2817318383458834,67.47981465884851
5.396036915727785,2,Esmee,78.125,-22.652526301,-0.443867980814,-0.041176105781424,0.0618039233923857,0.4548594794689999,247.0,6.959453936,-175.31086564999998,0.01616161616161616,0.4160951190415227,0.36441744066590326,68.23171327705782
4.849545723787358,2,Esmee,72.35054347826087,-18.809162266666664,-0.3704826187930692,-0.0448727067020386,0.0750557400937227,0.3857943306039604,248.0,7.0264645705,-175.66940725,0.013175230566534918,0.6485691002425054,0.30659745136530386,70.49911342516319
4.543535312477946,2,Esmee,80.078125,-22.25155499111111,-0.309588790779,-0.03475427547552,0.0847582150889589,0.326097802476,249.0,7.311423092,-174.8490266,0.01717171717171717,0.4403487145699548,0.2584199295204851,67.69497835443768
4.450708956482829,2,Esmee,64.19836956521739,-25.309332971,0.0396423578263663,-0.009649201187596,0.1096563492454455,0.2128931190388118,250.0,6.485247492,-174.1164621,0.008959156785243741,0.2553925630674412,0.0868496694281415,63.9386912479393
4.607585838502187,2,Esmee,74.21875,-27.898875496666665,0.0850123962742861,-0.0068517166443787,0.1085815557539603,0.1552412358139604,251.0,4.6213306695,-172.49392165,0.014141414141414142,0.09875862075721203,0.10441189869993675,62.30322692151432
4.960456600851683,2,Esmee,95.78804347826087,-28.51315483888889,0.06412677659033,-0.009172552044255,0.10168303926445,0.1397065904349,252.0,4.935790653,-172.24794845,0.02529644268774704,0.06160263891936561,0.08982005910794827,61.96372099365092
5.018180066887686,2,Esmee,100.88315217391305,-26.087571216666664,0.5028123789485148,0.0248872362255099,0.1250296460168118,0.5289398633613861,253.0,3.3943734525,-168.66494404999997,0.02793148880105402,0.20831918108311406,0.4216615494792238,66.43175234485224
4.708332058499057,2,Esmee,165.0390625,-22.924824553,0.5972765670969999,0.04074868601128,0.11175607275553,0.613948204232,254.0,0.632031296,-102.886716285,0.06111111111111111,0.39962458485558044,0.4969091364876585,69.99299033239046
4.460511037956365,2,Esmee,827.445652173913,-23.61360238888889,0.4381124832930693,0.0294355652874096,0.093048612630792,0.4507068072366336,255.0,0.71651080805,-113.541055,0.40368906455862974,0.3579624044735804,0.3634281841167322,75.27675561778942
4.601981507292377,2,Esmee,151.3671875,-23.66393265,0.317261652606,0.020383064858757,0.0779685919948939,0.3319801885919999,256.0,0.7329080480000001,-113.97763835,0.05404040404040404,0.3549180724584856,0.26215327194070004,67.43705112583551
4.717493896990108,2,Esmee,119.22554347826087,-26.301706314444445,0.2327727718316831,0.0131705131343354,0.072174197483,0.2477173440653465,257.0,0.6460460568999999,-111.4934448,0.03741765480895916,0.19536676797559605,0.19274733011759715,64.63473295282711
4.7416096344983645,2,Esmee,122.0703125,-27.293131379,0.1661110495652475,0.0102547643133841,0.0668800010650495,0.1828603751742574,258.0,0.6693935248,-111.54867925,0.03888888888888889,0.13539833153274178,0.13882497786550752,63.51315757909474
4.662124163916903,2,Esmee,118.20652173913044,-28.309132434444443,0.1251479361467,0.0064223010064709,0.0647642283437,0.1440343986471,259.0,0.6000463471,-109.7957012,0.03689064558629776,0.0739433644378696,0.10690104752662447,62.480341665193386
4.761553494701591,2,Esmee,119.140625,-27.380639136666662,0.0871529913679208,0.0033967966473287,0.0621105256768316,0.1097366035580198,260.0,0.65857046065,-113.92178425,0.03737373737373737,0.1301052402124789,0.07857663837585703,62.93735073703135
4.800898390614582,2,Esmee,103.40073529411764,-28.00859387222222,0.0630573793174,0.002854780250736,0.0610566433852,0.0899272694756,261.0,0.59291841505,-111.8764664,0.029233511586452758,0.0921220733605955,0.06252901979827725,62.19036727044242
4.767538139643978,2,Esmee,117.1875,-28.302364206666667,0.0449585855106217,0.0038375536846625,0.0603095890452475,0.078946349070495,262.0,0.66118530155,-120.7861505,0.03636363636363636,0.07435275497259881,0.05211204103517742,62.03640211522533
4.9838916444200025,2,Esmee,104.95923913043478,-28.17269625333333,0.03244556669434,-0.0011264295506329,0.0578311028833,0.0699531384893,263.0,0.6406547422,-106.62012315,0.030039525691699605,0.0821959946647797,0.04461073050981924,61.9440282938899
5.042554064398908,2,Esmee,101.5625,-27.551983148888887,0.0219450757916256,-0.0044757439846732,0.0565559660617821,0.0635032668890099,264.0,0.7212602728499999,-108.56844785,0.028282828282828285,0.11974113618267167,0.04003399871599924,62.32282218957662
4.872411007902926,2,Esmee,123.3016304347826,-28.592378796,0.017431159797533,-0.004160500051303,0.0558656315088,0.060974720275,265.0,0.6849910292,-111.6360487,0.03952569169960474,0.0568106107503999,0.03823407711609782,61.778113779925675
4.912181614215745,2,Esmee,95.703125,-27.80456809111111,0.0102488414745366,-0.0036259973696801,0.0566784854929703,0.0654747476735643,266.0,0.74242388445,-110.30158785,0.025252525252525252,0.1044630031239056,0.03743568608682745,62.05809203123199
5.528123365810891,2,Esmee,132.47282608695653,-26.097690986666667,0.0078173032590495,-0.0025604045521801,0.056087036732891,0.0720526698856435,267.0,0.7323483619,-110.0042477,0.04426877470355731,0.20770706544698828,0.0365817191111765,63.67051403232442
5.129183495821869,2,Esmee,455.078125,-22.629647586,0.005735683668624,-0.0053179081497734,0.05627594232555,0.0768220972795,268.0,0.7152419081,-109.17480875,0.2111111111111111,0.41747898638099407,0.036689940472353764,69.52548958257299
4.817058973082244,2,Esmee,1299.2527173913045,-22.634950806666662,0.0073108985627247,-0.0046468228044801,0.0557602700086425,0.0810282638981188,269.0,0.7379393334,-115.9252669,0.6476943346508565,0.4171582098918162,0.036366781241580354,78.25071946165156
4.825869431692618,2,Esmee,1402.1739130434785,-22.08346040888889,0.0045472820372753,-0.0030711053027345,0.0566923751767,0.0640263406777,270.0,0.79131816545,-114.18576895,0.7009222661396576,0.4505162699715325,0.03680696380764007,79.71909627291267
4.794011006513896,2,Esmee,971.6796875,-21.52766087,0.0001029008636638,-0.0055904186777623,0.0567090878510891,0.0666751827862376,271.0,0.7592529658,-117.6039799,0.4782828282828283,0.48413497754149687,0.03682926733815356,75.66991043485976
4.735341485867081,2,Esmee,1355.2989130434785,-25.79792229888889,0.0023506552440735,-0.005231926305624,0.0555419998166,0.0595590805765,272.0,0.7617256962,-114.4251532,0.6766798418972333,0.22583920688989026,0.03587356253552819,76.53065582090758
4.665682286277589,2,Esmee,387.6953125,-22.84760067111111,0.0001594741228861,-0.0024884519588118,0.0555674566259405,0.0597203782528712,273.0,0.8357283795,-114.56403475,0.17626262626262626,0.4042956342555676,0.03569520768706657,68.66236179781586
4.51334778268774,2,Esmee,357.6766304347826,-28.239115734,-0.0003991148022508,-0.002561529128396,0.0538612448880792,0.0668772335667326,274.0,0.8051744865,-113.13223155,0.16073781291172595,0.07817847226462535,0.03427853744185263,64.42712622494484
4.508179904671628,2,Esmee,114.2578125,-28.920182447777776,-0.001348859095783,-0.003308554883258,0.05649486207922,0.0654478172964,275.0,0.73925130245,-115.7697293,0.03484848484848485,0.036982715370143755,0.03651561291014909,61.43288718469262
4.509350526357039,2,Esmee,135.5298913043478,-28.749462384444445,0.0013866454815227,-0.0007015848281485,0.0539556918927989,0.0812919895935643,276.0,0.77630062575,-114.0256204,0.045849802371541494,0.047309078535184804,0.03432393409200635,61.7592964625891
4.463609387447899,2,Esmee,122.0703125,-28.14207119888889,0.420047350646812,0.0439712327377039,0.09315270007146,0.4683183562866,277.0,1.48973633095,-63.829196195,0.03888888888888889,0.0840484156864671,0.349795331831558,64.58472142066785
4.35964203973804,2,Esmee,94.76902173913044,-27.010853309,0.9788273832158416,0.082804580272693,0.145586968398702,1.0153841251336635,278.0,5.075907208,-7.303787767499999,0.02476943346508564,0.15247251606286047,0.8169905485931448,68.8609832508012
4.282004362782257,2,Esmee,81.52173913043478,-24.01344422777778,0.877375570377,0.06515241621973,0.16381172286388,0.909932242008,279.0,6.002518805,-6.074749496000001,0.017918313570487482,0.33377712738120485,0.7351949158469279,70.24525112675963
4.279170670807354,2,Esmee,73.2421875,-21.155278435555555,0.7968484510831683,0.0453288343910693,0.1161115132266732,0.8326851923980199,280.0,5.8496181775,-6.706057615500001,0.013636363636363636,0.5066593146303799,0.6615406287923604,71.64496407863072
4.314613505228541,2,Esmee,72.35054347826087,-23.173857422,0.5961415229762377,0.0467421483864158,0.1108158115883762,0.6371565580435644,281.0,5.180878435,-8.3120486295,0.013175230566534918,0.38456130643876635,0.4961973544017377,68.8478191238098
4.319043805140899,2,Esmee,71.2890625,-24.418481315555557,0.5125147442770001,0.0186251301704987,0.08934113992645,0.5260576870420001,282.0,4.889593293,-8.8113547265,0.012626262626262626,0.3092776047003967,0.42320768741701326,67.34951800826612
4.41349657902112,2,Esmee,79.4836956521739,-21.814516954444443,0.425633742990099,0.003098815880593,0.0874700736424821,0.4503968234762376,283.0,4.751799614499999,-8.7463674245,0.016864295125164686,0.46678388215037486,0.35150063297793527,68.75069755213127
4.444405551484052,2,Esmee,64.453125,-17.213789012,0.348374105484,0.0085504068375616,0.083924998550213,0.364362885763,284.0,4.440906117,-9.668252892,0.00909090909090909,0.7450686169941787,0.28807794718015856,71.42726516318959
4.45719965940044,2,Esmee,64.19836956521739,-20.606754555555558,0.3135165362267327,0.0105982723123108,0.0885270360254287,0.3434291453128713,285.0,4.5275789985,-8.6812350775,0.008959156785243741,0.5398379386244322,0.2609954445957699,68.74520195596422
4.480733155589249,2,Esmee,69.29347826086956,-14.522531541222223,0.26538667799,-0.026087253230208,0.09601280128796,0.3383638831759999,286.0,4.319035698,-8.419998258,0.011594202898550723,0.9078550023273392,0.2255541271469744,72.93057710307488
4.302559579913077,2,Esmee,75.1953125,-17.556199697777778,0.23899615314,-0.0119028078343861,0.0372733656439792,0.3353968207287128,287.0,4.061028107,-8.5513988425,0.014646464646464647,0.7243571843488643,0.1911779366633945,70.51463899842283
4.432382380331804,2,Esmee,77.44565217391305,-17.923805801,0.2258746144137,0.01331874103599,0.10761941911264,0.340096529631,288.0,4.421646689,-13.9188668655,0.0158102766798419,0.7021217537296378,0.19816120077771102,70.32695618457419
4.773409526446128,2,Esmee,104.4921875,-24.442668771111112,0.2022857476341584,0.0416948231504631,0.0834486308100079,0.293014640639604,289.0,4.436337209,-8.2877459793,0.0297979797979798,0.30781457542763174,0.17499351969831178,65.68968265867767
4.565055877483664,2,Esmee,92.73097826086956,-23.59785237111111,0.1738876683629703,0.0169575593225544,0.0760641705869306,0.2390652902170297,290.0,4.412612994,-7.734190209999999,0.023715415019762844,0.3589150775235643,0.14815101625441882,65.96649736071338
2.542060450368374,2,Esmee,76.171875,-21.612920331111116,0.15510982014823,-0.0045665935642,0.086267790750324,0.218895401898,291.0,4.5208150505,-10.2692360205,0.015151515151515152,0.4789778791811824,0.13730959837345977,67.14924164019217
2.4529411681748874,2,Esmee,69.29347826086956,-20.262801256,0.1083818830187425,-0.0054373533351049,0.0858106975226633,0.2263190286180198,292.0,4.293489338500001,-7.508533380499999,0.011594202898550723,0.5606426795182425,0.10464004123334164,67.79671654205666
4.187951102004588,2,Esmee,71.2890625,-19.834784913333333,0.10463606877482,-0.001690124526801,0.045876318452,0.1911550493371,293.0,4.0557597515,-7.835842514499999,0.012626262626262626,0.5865321509057905,0.08456864863101332,67.96746025244285
4.85252231820501,2,Esmee,70.3125,-18.676844653333333,0.0935315790740099,-0.0058743299434257,0.0624900620768269,0.2353657196533663,294.0,3.97568624,-12.600597745,0.012121212121212121,0.6565726102092492,0.08321499935901756,68.78701555980737
4.645232328221413,2,Esmee,72.35054347826087,-19.431550839,0.1010621559606899,0.03906876780025,0.087312524469521,0.2748599639196,295.0,4.225891129,-10.9691781655,0.013175230566534918,0.6109226145149509,0.10531200061914844,68.4370719904633
4.41028450423545,2,Esmee,71.2890625,-20.89227597,-0.1303290166365346,0.059706625325198,0.049908272372099,0.2980072638644554,296.0,2.628665525,-28.34437743,0.012626262626262626,0.5225675735637494,0.11584788605484675,67.45011922372902
4.544322212032325,2,Esmee,73.3695652173913,-22.909266664444445,-0.1468950527732673,0.0880919525257534,0.1264470168793564,0.281231751830693,297.0,2.7555001445,-29.22397987,0.013702239789196307,0.40056563656426114,0.16677797985415785,66.41505627338832
4.776008960211216,2,Esmee,68.359375,-20.86327480222222,-0.12849672005496,0.119072946589141,0.08913541733679,0.284738656199,298.0,3.0000367590000003,-32.81072826,0.011111111111111112,0.5243217703748113,0.15315598052306373,67.73933131090446
4.838805833314162,2,Esmee,62.16032608695652,-21.381155218,-0.1216280161868712,0.1336458685329405,0.0576801019539485,0.2520583282742574,299.0,3.3645170785,-34.441882235,0.00790513833992095,0.4929966809566908,0.14743064997185518,67.25350813805355
4.934178553523746,2,Esmee,58.59375,-19.964190313333333,-0.10924070527886,0.10418208514626,0.08481146568031,0.235914511852,300.0,3.0907108835,-36.92594328,0.006060606060606061,0.5787047923058333,0.13364584592930812,68.13483639631659
5.330837874786697,2,Esmee,59.10326086956522,-19.856124012222224,-0.0959232778870495,0.0512912184819306,0.1054856924231782,0.2684565951646535,301.0,3.1895523715,-31.961765390000004,0.00632411067193676,0.585241410494623,0.11562236689068024,68.07435807449966
5.470969426378276,2,Esmee,67.2554347826087,-21.18319915,-0.252549365993649,-0.025175537824341,0.03903654963737,0.3116525483608,302.0,2.600945021,-35.089738440000005,0.010540184453227935,0.5049704713184031,0.2033526193184179,67.89727029943273
5.273533606236245,2,Esmee,67.3828125,-20.297636984,-0.5413217960524752,-0.0781821305139683,0.0104786272781683,0.5809364005435643,303.0,1.1749728566,-122.29905635,0.010606060606060607,0.5585355670241227,0.44526242878238115,70.47664744666973
4.800277338734388,2,Esmee,63.17934782608695,-20.10440701111111,-0.708635088752,-0.08192615565332,0.0484349138399,0.77437136596,304.0,1.9445962055,-149.25753185,0.008432147562582343,0.5702234895533321,0.585246565473152,71.69329734967684
4.596126916244809,2,Esmee,90.8203125,-18.35730134,-0.291201039909703,-0.0622856874135049,0.0328292385960752,0.4772146216425742,305.0,1.6620582265,-99.541774335,0.022727272727272728,0.6759008615934923,0.23902927658550044,70.47759000635136
4.352845787442592,2,Esmee,112.09239130434784,-21.31346912555556,-0.1060297569119703,-0.1126321188712376,0.0317973323990099,0.3110305542752475,306.0,1.8898753065,-37.691774865,0.03372859025032939,0.4970908170421439,0.12095540642077687,67.60730486087853
4.512258472069402,2,Esmee,69.3359375,-22.458382087,-0.19585414822411,-0.056336566255414,0.02887359182129,0.286055510803,307.0,1.560002105,-31.16433702,0.011616161616161616,0.4278383413729313,0.16088470366013452,66.65346095807948
4.330204241053097,2,Esmee,79.4836956521739,-18.801898172222224,-0.4363003987841584,-0.0341804360543198,0.0573300968900891,0.4890201060613861,308.0,1.4423688295,28.47202755,0.016864295125164686,0.6490084843185995,0.35719864392799977,70.98297686575049
4.653721877953612,2,Esmee,91.796875,-20.975358204444447,-0.394611416956,-0.08342712860295,0.0838524404574899,0.507648051424,309.0,1.1403704715,-136.93760765,0.023232323232323233,0.5175421693512327,0.3326801987034697,69.33659408648901
4.330532843392157,2,Esmee,72.35054347826087,-19.99984469,-0.2917477154495049,-0.0454047150386732,0.1123889904839915,0.3636453381792079,310.0,0.6406037738,-108.32237992,0.013175230566534918,0.576548162120169,0.2526433066904768,69.20322901029654
4.733410627423685,2,Esmee,67.2554347826087,-21.40571686,-0.1890745780761,-0.0454256764668799,0.06893234585512,0.294791981624,311.0,1.114586066,-88.519477075,0.010540184453227935,0.4915110182274866,0.16128513656708063,67.39921700033105
4.673593420069513,2,Esmee,72.265625,-21.21276794888889,-0.1589710347982178,-0.0112035561013042,0.0550395572586237,0.2202281516546534,312.0,0.8669540743499999,-61.531094475,0.013131313131313131,0.5031819401421667,0.12985661416023242,67.33966245761412
4.929225946581283,2,Esmee,65.21739130434783,-20.89006021666667,-0.1316370471920792,-0.0362388224093564,0.0338671656890108,0.2422509310088119,313.0,1.1422416375,-55.98068421,0.009486166007905139,0.5227015980782521,0.1065782741408346,67.3147686902238
5.0046306070862085,2,Esmee,71.2890625,-22.133536019,-0.14059098880885,0.01917001173349,0.07089928488051,0.26907415001,314.0,0.89167806195,-67.86993466,0.012626262626262626,0.44748734105935944,0.12153637203572272,66.59466432152334
4.625691384064087,2,Esmee,76.42663043478261,-23.44662422,-0.1230890067000198,0.0675922266705148,0.0474564711733069,0.2247313821569307,315.0,0.6694632005000001,-73.633333705,0.015283267457180501,0.36806243125961535,0.11287649245006512,65.62542646385951
4.542687513902663,2,Esmee,69.3359375,-22.760116389,-0.1033970304835576,0.13937952986798,0.0854889650171299,0.2703493739773,316.0,1.07595164735,-70.785668305,0.011616161616161616,0.40958730560733103,0.15057254872166656,66.35195128938453
4.276633808586215,2,Esmee,66.23641304347827,-20.955226444444445,-0.1708213756328712,0.2246327095026732,0.123391684600891,0.3432066404861386,317.0,1.4431631255,-89.022681365,0.010013175230566537,0.5187598813228219,0.24603871376528583,68.39369179060748
4.006187866802358,2,Esmee,61.141304347826086,-19.052946922222223,0.0094780255766619,0.322198182696,0.0779214751265,0.394459536181,318.0,1.600669472,-82.80227538,0.007378129117259552,0.6338232710869954,0.26572469412594724,69.87923938839671
4.074674995007941,2,Esmee,72.265625,-19.376998244444444,0.1045100150273168,0.3817781281534653,0.152501874046594,0.4655260990475248,319.0,3.271196785,-63.345858230000005,0.013131313131313131,0.614222343275454,0.3428713970763098,70.37626555854219
4.409272597520486,2,Esmee,59.10326086956522,-19.780346886,-0.04015541453657,0.3914537100101,0.13509056795395,0.498968703695,320.0,3.205183859,-53.79076874,0.00632411067193676,0.5898249498261777,0.33609087958197764,69.89310864800869
4.725279967793479,2,Esmee,65.4296875,-22.21726648222222,-0.2512397618352673,0.363700178630297,0.1470576299711287,0.5402981693118811,321.0,2.5636779075,-97.288221645,0.009595959595959595,0.4424227273617792,0.3776040754276837,68.52182452368201
4.764946216335847,2,Esmee,60.12228260869565,-21.628181687777776,-0.2348192345279307,0.2657901055119802,0.1139651277290396,0.4299690769792079,322.0,2.771126275,-102.58247055,0.0068511198945981535,0.47805476382933626,0.29981225893205316,68.27217763530042
4.569341341339806,2,Esmee,62.5,-20.38623737555556,-0.12380901493787,0.21680986080981,0.10096963802775,0.346354721708,323.0,2.642618153,-91.970537975,0.00808080808080808,0.5531763854381766,0.21379437953756472,68.5100878231748
4.22055997717221,2,Esmee,58.08423913043478,-20.532886308,-0.0648890476538059,0.1722655845252217,0.1210025064954356,0.3622860445940594,324.0,3.0174621405,-78.7267993,0.0057971014492753615,0.5443060154030502,0.17293548136077097,68.03109806470827
3.969422620152737,2,Esmee,64.453125,-20.53843750888889,-0.03366585648311,0.167264725899137,0.06078158451464,0.2892153539596,325.0,2.679751776,-78.782149835,0.00909090909090909,0.5439702393070159,0.14029149307428723,67.83179299809667
4.052015580662578,2,Esmee,55.02717391304348,-20.98542122888889,0.0042080142343861,0.1468415290398019,0.1046006208153564,0.2972874992295049,326.0,3.009157276,-69.80702399,0.004216073781291171,0.5169334860897399,0.13963700447226687,67.40461934448084
4.161760102309659,2,Esmee,54.00815217391305,-20.181949745,-0.0137558088958316,0.0976638108700699,0.1088760208329,0.2571432532941,327.0,3.510619811,-64.713301435,0.0036890645586297776,0.5655331537175061,0.11177430993466095,67.75437361525996
4.2755511565556645,2,Esmee,64.453125,-20.549749684444446,-0.2627907518218316,0.1060531299716534,0.0933144814712475,0.3836103045584159,328.0,3.438976844,-86.45373809,0.00909090909090909,0.5432859985054805,0.23799577409658043,68.6052163566566
4.145825239655127,2,Esmee,62.16032608695652,-18.015690013333334,-0.262796701430693,0.0623860438705633,0.0517862359449406,0.3654556489148515,329.0,3.110161138,-95.039928405,0.00790513833992095,0.6965639433167213,0.21854987813070442,70.26526911164471
4.0416078553034565,2,Esmee,62.5,-20.39513041,-0.2414966457783,0.04025168729732,0.07241667242453,0.364255780845,330.0,3.0458464385,-93.342803215,0.00808080808080808,0.5526384714899301,0.20212574189051843,68.41028375461947
4.200221519500484,2,Esmee,65.21739130434783,-21.05421267777778,-0.1238463076074752,0.0384347847726732,0.0738630586228316,0.2769440141953465,331.0,3.339523142,-83.10321446,0.009486166007905139,0.5127724901879924,0.113714698557331,67.25271079087265
4.203885832576022,2,Esmee,58.59375,-22.925747358888888,-0.1105148914179566,0.043667538588013,0.06796964272774,0.2496703737174,332.0,3.4680790755,-79.90339473,0.006060606060606061,0.3995687669947302,0.10343062165535784,65.74348229839174
4.397899432858167,2,Esmee,65.21739130434783,-20.444431196666667,-0.1098688593552376,0.0375435243745671,0.0583744211848019,0.2503184534860396,333.0,2.8535258815,-85.971507865,0.009486166007905139,0.549656409408286,0.09764629177519525,67.5667705672591
4.528911731013427,2,Esmee,59.10326086956522,-20.799323406,-0.10045408610156,-0.009442209550949,0.04985349513797,0.3200546162491,334.0,2.446960731,-79.99713314,0.00632411067193676,0.5281900054809142,0.08313312031578272,67.12982724173597
4.418923636389281,2,Esmee,64.453125,-18.6395808,-0.1144674435369368,-0.0080100211175148,0.1950546443859306,0.3744576402249505,335.0,1.8684547,-77.57314196,0.00909090909090909,0.658826592986291,0.17794749756979228,69.511317278212
4.090906210345853,2,Esmee,65.21739130434783,-18.668795653333333,-0.2066809953713,0.1082962021609,-0.16971158098703,0.570309071098,336.0,2.771005839,-83.547964625,0.009486166007905139,0.6570594709536313,0.22980627488050617,69.91288717064573
4.236911347657414,2,Esmee,65.4296875,-18.907935537777774,-0.2006030738357227,0.0563708930005425,0.0601618455348712,0.3185751157438614,337.0,3.6050801805,-89.88661731,0.009595959595959595,0.6425945905769315,0.1700969744140367,69.26383007415467
4.407579235755572,2,Esmee,66.23641304347827,-18.289512149,-0.1885831662809901,-0.0116268539903762,0.0503569506541683,0.2563940903396039,338.0,3.452634304,-93.45292258,0.010013175230566537,0.6800012338125649,0.15230513821601038,69.5787194160902
4.484054293651821,2,Esmee,67.3828125,-16.772887934444444,-0.17054509610126,-0.01115647138742,0.07922500661052,0.275412331592,339.0,2.6493394275,-97.07453839,0.010606060606060607,0.7717374487518559,0.1463396757818824,70.64368800339854
4.466415326817532,2,Esmee,74.38858695652173,-17.010543923333334,-0.1633147563651386,0.0170834770825742,0.0633561157654851,0.2748778098189108,340.0,3.3753774715,-95.733290345,0.014229249011857705,0.7573623249281143,0.13602603763669452,70.46114118046808
4.486981642777429,2,Esmee,69.3359375,-17.60977083888889,-0.1624926429005,-0.010012757464235,0.06319039178374,0.258832088422,341.0,2.4907846090000003,-98.06247719,0.011616161616161616,0.7211168208703265,0.13488413096441207,69.96479813048245
4.386065649313791,2,Esmee,63.17934782608695,-16.719917012,-0.1557355581642178,0.0169048359655445,0.0791798160284356,0.2744043998962376,342.0,2.99978736,-93.12520434,0.008432147562582343,0.7749415067381779,0.13562589536118494,70.55294819499926
4.257866855435532,2,Esmee,66.23641304347827,-15.504677184444445,-0.11777633748175,0.0009315009201599,0.05133535500297,0.2475443209588,343.0,2.3355512995,-87.8803546,0.010013175230566537,0.8484478512587899,0.09641821930650861,71.15298347416888
4.077174535673398,2,Esmee,63.4765625,-19.091273934444445,-0.0908232419524495,0.0503862996220693,0.0189806235719702,0.2707597011181188,344.0,2.433657632,-95.81412655,0.008585858585858586,0.6315049809018233,0.07733427911289928,68.36845117544225
3.718643837906413,2,Esmee,72.35054347826087,-20.167387632222223,-0.0871950048377029,0.0056261561665079,-0.0267236049547994,0.5390875509945544,345.0,2.5872116465,-104.4019309,0.013175230566534918,0.5664139738276769,0.06548936341907848,67.58438720461545
4.064042145775852,2,Esmee,61.5234375,-21.364468701,-0.096779708571853,0.022188569573804,-5.080060660999974e-05,0.3891467371681,346.0,3.1807928235,-91.86389095,0.007575757575757576,0.4940060001376777,0.07208948615275085,66.6563030423893
4.272961656173338,2,Esmee,61.141304347826086,-20.30240932222222,-0.0976906983234029,0.0114113956760891,0.1065635716314752,0.3141824410586138,347.0,3.348491852,-100.125763,0.007378129117259552,0.5582469020794943,0.11019849894639777,67.7281133988703
4.301700577353799,2,Esmee,65.4296875,-20.71732418333333,-0.10672144758443,0.039971361549579,0.01331839020314,0.2611684541471,348.0,3.286267039,-98.832010335,0.009595959595959595,0.5331499014414366,0.08496301071838068,67.26942209496347
4.317406917628023,2,Esmee,65.21739130434783,-22.88036023333333,-0.1142764365973297,0.0399315952729405,0.0451333144965049,0.2775731369417822,349.0,3.21784951,-99.520277705,0.009486166007905139,0.4023141030281927,0.09701077958729994,65.79357879319481
4.330947538241276,2,Esmee,70.3125,-23.01906087,-0.113225262796604,-0.121304334717375,0.05390020691395,0.3035500728001,350.0,2.886350017,-99.83760728,0.012121212121212121,0.39392450243013105,0.13474755913864742,66.04749874469499
4.551205707517428,2,Esmee,62.5,-22.073294404444443,-0.1158003874438316,-0.2702407701497425,0.0367329034463069,0.3398208550425742,351.0,2.69508985,-102.14918055,0.00808080808080808,0.45113118219556214,0.23627921425952392,67.4654240620391
4.723767158874976,2,Esmee,72.35054347826087,-20.93084228555556,-0.10406942063526,-0.3877347595199999,0.00947429029747,0.459708499962,352.0,1.65141699,-103.30021105,0.013175230566534918,0.5202348086116494,0.32402227361754526,69.09850050361085
4.688657130144731,2,Esmee,70.3125,-20.917789423,-0.1012928842103762,-0.4173342924782178,0.0333608952310207,0.4877282264752475,353.0,1.0612695698,-127.52873005,0.012121212121212121,0.5210243385383629,0.3483378719231198,69.28141928026956
4.542661550277062,2,Esmee,73.3695652173913,-23.45290272,-0.114287871599,-0.4124709765188119,0.0442821914730891,0.4843290161871287,354.0,0.95477180925,-136.75397305,0.013702239789196307,0.36768266294260665,0.3479640763395896,67.46994936181193
4.603230113981849,2,Esmee,84.9609375,-23.244067541111107,-0.08745456941573,-0.3744249486451,0.060548888722318,0.4891090695009999,355.0,0.8873684324,-131.72994864999998,0.019696969696969695,0.3803144992759405,0.3137467123667988,67.46768708418507
4.591729459003784,2,Esmee,79.4836956521739,-18.962992421000003,-0.0433965984583366,-0.2867402348694653,-0.0212452791468019,0.4266137472712871,356.0,1.23210317225,-112.680306755,0.016864295125164686,0.6392643588526267,0.23168731115363064,69.86195669796386
4.6074909803222255,2,Esmee,61.5234375,-19.462307087777777,0.032267540171904,-0.14230780377069,0.05193134999616,0.3265040933813,357.0,0.6940539698,-71.29266256,0.007575757575757576,0.609062257927257,0.11842475282350805,68.40766026923029
4.494082685708472,2,Esmee,67.2554347826087,-20.59553466,-0.0012482473863564,0.0534250093106554,0.0339466183501485,0.2289493149544554,358.0,1.443140815,-78.79124197,0.010540184453227935,0.5405165976755029,0.04210161935760467,67.03381581603144
4.263646367568566,2,Esmee,70.3125,-21.25418963222222,-0.08409040824206,0.18545063953806,0.07319174424784,0.3212491401965999,359.0,2.0099301405,-98.809235055,0.012121212121212121,0.5006764622466239,0.16967656164448727,67.60795428253962
4.412225731829716,2,Esmee,71.2890625,-19.950084024,-0.1186460713540901,0.304951017494693,0.1330045302901584,0.4821666516673267,360.0,2.227980031,-99.560699525,0.012626262626262626,0.5795580409734062,0.2837227427502529,69.47700368620815
4.5614345506520575,2,Esmee,62.16032608695652,-18.319141063333333,-0.1253437634384653,0.2921727179316911,0.1357451723705643,0.4258893552018811,361.0,2.865287443,-76.07405937,0.00790513833992095,0.6782090664268576,0.27745081162285945,70.51621805690358
4.534324146491224,2,Esmee,64.453125,-18.479175445555555,-0.130012847339653,0.2983940639865,0.06090596648374,0.414115620759,362.0,3.8699374015,-97.944163665,0.00909090909090909,0.6685290492252883,0.2653205679137838,70.3267313158319
4.528957997520903,2,Esmee,67.2554347826087,-20.700375606666668,-0.130673426322498,0.2471844722751653,0.1357553036818316,0.439203960539604,363.0,3.3736759435,-95.61538917,0.010540184453227935,0.5341750718541769,0.24838208234810377,68.60796121009952
4.55438750578944,2,Esmee,68.359375,-19.494169061,-0.11471072527821,0.1487211146877,0.08812005418657,0.321507457995,364.0,3.2818451615,-97.25992784,0.011111111111111112,0.6071350192640128,0.16224654854618945,68.8058148417599
4.58045911965992,2,Esmee,64.19836956521739,-22.69709417888889,-0.1089619015695703,0.0486791992213366,0.0663204051592871,0.2499191327152475,365.0,2.6919820555,-94.223678705,0.008959156785243741,0.4133993369313833,0.103127297609411,65.96499355975676
4.589090292303077,2,Esmee,64.19836956521739,-22.995273942222223,-0.08220124960933,-0.15009293872313,0.013961075219002,0.2784865404556,366.0,1.88833356,-98.4875466,0.008959156785243741,0.39536330493534294,0.1324360232212866,65.98303098069928
4.542065178545454,2,Esmee,64.453125,-24.21595883111111,-0.0580348911743722,-0.2772738662623762,0.0039287441999901,0.3322806538475247,367.0,1.3413924215,-103.43012959,0.00909090909090909,0.32152760439361633,0.2254588152743315,65.84381995673623
4.520742081102514,2,Esmee,61.141304347826086,-24.465964677,-0.036495432674848,-0.366796181406,-0.01063695650869,0.398501950275,368.0,1.0488218509,-119.587311295,0.007378129117259552,0.30640547341718105,0.2966776322388634,66.19784932126227
4.492081164543743,2,Esmee,75.1953125,-22.859870828888887,-0.0242332736400158,-0.3385113809415841,-0.0053607909967425,0.3682284776118812,369.0,1.0298789465,-116.37493645,0.014646464646464647,0.40355344787845565,0.2722237644720379,67.31336078324706
4.500115106731523,2,Esmee,68.27445652173913,-22.969040635555555,-0.0197119423617623,-0.2901966557445544,-0.0231872610333798,0.3412157484366336,370.0,0.8391259953000001,-153.15229555000002,0.011067193675889325,0.3969500818282907,0.23252526001026594,66.8449469355394
4.451282429189323,2,Esmee,69.3359375,-23.162914131,-0.002904282413519,-0.2394685406755,0.12241363484494,0.356719921886,371.0,1.129569968,-133.4246518,0.011616161616161616,0.38522323447979623,0.21349811350150893,66.56298695409286
4.439055986810463,2,Esmee,65.21739130434783,-23.60325495777778,0.0016585753827029,-0.1513844711337426,-0.0737768729747227,0.3796878665289109,372.0,0.501008068085,-124.68147758,0.009486166007905139,0.3585882906722631,0.12969926496807516,65.53037692796985
4.412857023875217,2,Esmee,56.640625,-20.38920016,-0.0026710212640861,-0.14859594187628,-0.01510898889739,0.2132494437056,373.0,0.93189817225,-125.35907395,0.005050505050505051,0.5529971751710546,0.11384106813173804,67.64770474811667
4.654997126112636,2,Esmee,58.08423913043478,-16.051623870999997,-0.0055811640813613,-0.1168231729249504,0.0624351793094752,0.6634280659373267,374.0,0.373401109,-95.07370472,0.0057971014492753615,0.8153646271373177,0.09983265413703589,70.6989787877296
4.807890903310143,2,Esmee,58.08423913043478,-16.27544188888889,-0.01619348404496,-0.12388770475783,-0.0568047995903,0.4170395528878,375.0,0.9482697772,22.52191186,0.0057971014492753615,0.8018265221807394,0.10372524494038544,70.56766225467746
4.51588084626607,2,Esmee,58.59375,-23.62577135,0.013353317501693,-0.110837819700891,0.0911628508408217,0.4709952560452475,376.0,1.5100200465,-122.46914778,0.006060606060606061,0.3572263391903263,0.10946207387804488,65.28362478252039
4.471513653427964,2,Esmee,59.10326086956522,-24.371652834444447,0.003925656137118,-0.09795938469734,0.0025334640570899,0.1723213287972,377.0,1.394366354,-109.4031672,0.00632411067193676,0.31211012416517936,0.07107270180793702,64.44038531788438
4.443883679155154,2,Esmee,70.3125,-24.725251544,0.0136382614400643,-0.0442551640201683,0.044506684027693,0.2086588184148514,378.0,0.6197473257,-156.14853305,0.012121212121212121,0.2907219603005071,0.04286752547629672,64.0740279698407
4.417050723615954,2,Esmee,62.16032608695652,-23.83538848111111,0.004089372930297,-0.0516106197426633,0.009017263356496,0.1728461664133663,379.0,1.2777134931,-112.5770825,0.00790513833992095,0.3445472048273019,0.033135208107182124,64.5577508895835
4.431064913846297,2,Esmee,93.75,-21.478027637777775,-0.00442890076681,-0.0716164122589299,-0.084021430834194,0.2631371587697,380.0,0.91330585465,-123.28309339999998,0.024242424242424242,0.48713714829386345,0.08142378246590237,66.98188452410207
4.407048713428859,2,Esmee,66.23641304347827,-23.873770764,0.0136331317381782,-0.1296265359120297,0.1056150490459703,0.4085153988215841,381.0,0.54484834615,-153.456229,0.010013175230566537,0.3422255714792628,0.12915484000467986,65.34020908239992
4.356674542064153,2,Esmee,65.21739130434783,-23.39770357444444,0.010271113033589,-0.11725922800368,0.0461449044584049,0.2215991654431,382.0,0.74715804405,-120.8325126,0.009486166007905139,0.37102149970424586,0.09470864898807314,65.39965050851364
4.5550965647962895,2,Esmee,65.4296875,-22.740883051111112,0.0011191903632089,-0.0807940122777425,0.0503529328617356,0.2292802309230693,383.0,0.67713734475,-104.49350486,0.009595959595959595,0.41075067462230624,0.06868580312232667,65.67041371236547
4.682138590713904,2,Esmee,64.19836956521739,-23.98161202888889,0.01972288899595,-0.1009420947163999,0.0479704811969999,0.3476934640731,384.0,1.1127077305,-92.867615165,0.008959156785243741,0.3357025650810883,0.0839218999991891,64.87898911667145
4.705569075701646,2,Esmee,75.1953125,-23.504832829,-0.0015490634740396,0.001964817877792,-0.0242369578208019,0.3677263567814851,385.0,0.53472687565,170.54447785000002,0.014646464646464647,0.3645415607530699,0.009643738981002462,64.74457793381416
4.712774527265422,2,Esmee,61.141304347826086,-23.41682624888889,0.0173401836030079,-0.0561008037444455,0.0461092437359703,0.1781996640299999,386.0,0.5494745744,-150.9272471,0.007378129117259552,0.36986482440115226,0.051560767056217136,64.99842661160875
4.570038759667055,2,Esmee,61.5234375,-24.06316366,0.025507345752349,-0.0217485095780399,0.025520675576417,0.1787677171434999,387.0,0.55085552775,-162.9424982,0.007575757575757576,0.3307697426399993,0.02444914026666193,64.31634518532844
4.61906577494624,2,Esmee,67.2554347826087,-23.154332155,0.0259381715642673,0.0718867590698316,0.0248671487218118,0.1856151764864356,388.0,0.8495400715500001,-127.48538335,0.010540184453227935,0.3857423334018524,0.05631770703621505,65.29025334617651
4.552424792107314,2,Esmee,66.40625,-22.622013125555554,0.0047278930301005,0.14775521898167,0.070170382677176,0.254170913665,389.0,1.8109074675,-100.935283745,0.010101010101010102,0.41794077282588643,0.1257204635853717,66.22307318461381
4.540832328672061,2,Esmee,62.16032608695652,-23.917595685555558,0.0132608717925445,0.1040607679461,0.024720574659292,0.2191274454110891,390.0,1.23935170325,-119.2819423,0.00790513833992095,0.33957472865021276,0.07916123783240361,64.8662894132602
4.592128138789101,2,Esmee,78.46467391304348,-20.394965848,-0.152118797220203,0.070102321084927,0.0199981441134,0.3299453997346,391.0,1.6248752096,-136.08509675,0.016337285902503298,0.5526484253696441,0.12992512887757116,67.99792785350637
4.62237587786203,2,Esmee,61.5234375,-22.17595202444444,-0.411091669719802,0.0052492452229861,0.070377724419694,0.5209549598524752,392.0,4.1397912245,-163.23288135,0.007575757575757576,0.4449217194934018,0.3369701970895194,68.18633736215213
4.599746003614249,2,Esmee,67.2554347826087,-21.509032755555555,-0.1720185085705,0.059840744125789,0.03413630225706,0.2378635570915,393.0,2.5327335715,-147.84150870000002,0.010540184453227935,0.4852617383397147,0.14377446747480147,67.18414028893955
4.588149018193297,2,Esmee,57.6171875,-18.388598905555558,-0.3258497054613861,0.0051540166574762,0.0636710375381742,0.407522030660396,394.0,3.759709175,-157.90194875,0.005555555555555556,0.6740077623185854,0.26608302140277695,70.32786843015634
4.71447918209481,2,Esmee,70.3125,-14.380441643,-0.3589710316597029,-0.0170645821902821,-0.0066869858158782,0.4801702021356435,395.0,4.9830079955,-168.1316937,0.012121212121212121,0.9164496095602428,0.2889081449036837,73.55108471637662
4.69452617251416,2,Esmee,75.1953125,-13.253189426666664,-0.2668980624524,-0.12447837001673,0.02986068953645,0.613889928212,396.0,3.8025857565,9.311392949999998,0.014646464646464647,0.984633837806032,0.23604280438355424,73.99687778167011
4.63781797530443,2,Esmee,76.42663043478261,-12.999149147333334,-0.0613044381532178,-0.0515926670519405,0.0642384316613643,0.4428424781742574,397.0,2.465639415,152.4945046,0.015283267457180501,1.0,0.07492818416480247,72.90509082246203
4.579865274642506,2,Esmee,90.6929347826087,-16.395348014444444,-0.0034243414503199,-0.06640790697289,0.037813183488536,0.3524355539791999,398.0,2.416525506,0.3493978999999996,0.022661396574440055,0.7945737472342932,0.05309101294967592,70.41284100189773
4.515391324679977,2,Esmee,115.234375,-17.71990926,-0.0755041600177425,-0.0373401845564366,-0.0033048810229049,0.3259546203166337,399.0,2.782270948,-135.1395908,0.03535353535353535,0.7144548661321951,0.05959358413164095,69.75727777371017
4.578207080581609,2,Esmee,133.49184782608697,-20.93155272,0.01176464247812,-0.03055787790586,0.06974017963002,0.3355440926477,400.0,2.7190544145,-153.70519915,0.04479578392621871,0.5201918364856146,0.05354866425930952,67.56660703042623
4.557746234801292,2,Esmee,96.6796875,-20.32835784,-0.1015183341728812,-0.0301691100725336,0.0031185806233267,0.3398607839022772,401.0,3.0456370525,-160.257223,0.025757575757575757,0.5566773512432539,0.07764147179271257,67.81641150441226
4.57034259519136,2,Esmee,151.83423913043478,-21.643803658,-0.02323766384773,-0.043395034949613,0.07054759824701,0.2553897380393,402.0,3.3861766935,-168.79596335000002,0.054281949934123844,0.47710983600586676,0.061032192556038874,67.29921457120119
4.5698850085325935,2,Esmee,129.8828125,-21.089811723333334,0.0348593925923366,-0.0233570835724851,0.0468595109796633,0.2109535698722772,403.0,2.6369684935,-159.19119285,0.04292929292929293,0.510619206821305,0.041760754585706446,67.32010237712717
4.607755442976161,2,Esmee,179.34782608695653,-23.798271808888888,0.0261136455656198,0.0125206862958089,0.079966046537794,0.1490231163446534,404.0,2.305654447,-162.65728165000002,0.06851119894598155,0.3467922850443594,0.06021945063218705,66.01348700450944
4.625634359400925,2,Esmee,131.8359375,-22.11813558333333,0.022637007886913,-0.045578309258392,0.00917774875741,0.11558688404,405.0,2.5198606425000003,-163.5261281,0.04393939393939394,0.4484188688979087,0.03243462203247248,66.51929128182256
4.615906817420098,2,Esmee,152.85326086956522,-21.997987039,0.016682877683797,-0.0051427274800793,0.0669300439659505,0.115791335870099,406.0,2.630547852,-161.62529124999998,0.05480895915678524,0.4556863070555114,0.04698500257272588,66.94029488838365
4.597767905500729,2,Esmee,115.14945652173913,-23.95387999333333,0.05620099271548,-0.00572474279733,0.051891033446416,0.1345222848672,407.0,2.441198706,-162.2468285,0.035309617918313566,0.3373799957524523,0.053267439441920424,65.18089182293106
4.585328248608704,2,Esmee,92.7734375,-23.18777755,0.2878620890425742,0.000944756632197,0.0635044324177782,0.3252009683019802,408.0,1.13397287495,-142.0334445,0.023737373737373738,0.3837193181321478,0.2350231181075217,66.95956423719342
4.662750968596757,2,Esmee,73.3695652173913,-22.55126560444445,0.13774766992207,-0.0201041190526989,0.08066233408096,0.322048048391,409.0,0.93314611675,-134.5328983,0.013702239789196307,0.42222008588233284,0.12342751391367854,66.32810593768134
4.696663292552121,2,Esmee,62.5,-22.597548948,-0.0898421956778514,-0.0242586692268712,0.0331170894982277,0.2197277082447524,410.0,2.448159225,13.557247000000004,0.00808080808080808,0.419420540212567,0.07166111393658976,65.76795155565968
4.767216473156117,2,Esmee,73.3695652173913,-23.358247026666664,-0.245069725954774,0.014895524597533,-0.00947113865013,0.312975231198,411.0,3.158899416,-159.2443755,0.013702239789196307,0.37340811223025316,0.1941172304182758,66.30787998589317
4.760447885274973,2,Esmee,64.453125,-23.354710008888887,-0.2354996353218613,-0.0341452442085247,0.0999397415310891,0.3598102474921782,412.0,4.021478802,-166.4698231,0.00909090909090909,0.3736220562118883,0.2044453855215662,66.30084594053338
4.715159354975827,2,Esmee,72.35054347826087,-23.85065398,-0.1940259874491089,0.0116301437742574,0.051883600764891,0.3660186674049505,413.0,4.407948729,-162.207304,0.013175230566534918,0.34362383892440607,0.15700818755396506,65.64305617885529
4.787902531891001,2,Esmee,67.2554347826087,-23.814026053333336,-0.032615208305959,0.00450805416377,0.0036260221457,0.2150236001533,414.0,2.462542513,-171.69307325,0.010540184453227935,0.34583935633552587,0.01694353031237516,64.49642420758987
4.683318554475615,2,Esmee,71.2890625,-23.92589039,-0.0441434720712346,-0.0387358251975742,0.0609922080552772,0.2199411277370297,415.0,2.3813955485,-164.51186275,0.012626262626262626,0.3390730059541946,0.05990467899792957,64.80063875595903
4.506167357864588,2,Esmee,75.40760869565217,-22.90730831888889,-0.044313975321714,0.008050445047664,0.054409423383096,0.1588710905251,416.0,3.551627378,-163.9590973,0.014756258234519103,0.4006840912263228,0.048204311710793105,65.48896875309259
4.571127176299912,2,Esmee,71.2890625,-24.306907657,-0.1804072396427048,-0.0236627033492272,0.0356604140993594,0.222829793270891,417.0,3.319798413,-164.28951715,0.012626262626262626,0.3160263728029916,0.14386842375936817,65.1957891162361
4.698018482009617,2,Esmee,65.21739130434783,-23.16530934333333,-0.39435812435,-0.036960735457978,0.0382137762276739,0.411233585545,418.0,5.299281271,-170.37260750000002,0.009486166007905139,0.3850783550091095,0.32098481885161145,67.37854213108031
4.637087562722848,2,Esmee,75.1953125,-21.67585872777778,-0.4302073538435643,-0.0178821227972079,0.0361005994423366,0.4389125983653465,419.0,6.097717922999999,-170.53023235,0.014646464646464647,0.4751709174901222,0.34945863098101937,68.79064935065891
4.6031864326647405,2,Esmee,71.33152173913044,-26.02224910111111,-0.387647725177,-0.04502815643461,0.0416776317001049,0.396073296088,420.0,6.749304373499999,-174.7431876,0.01264822134387352,0.21227032703962873,0.3164407294608574,65.33173418703987
4.518025779325556,2,Esmee,68.359375,-25.894278311,-0.2234968234607227,-0.0244761205191485,0.0544178303455396,0.2645330718646534,421.0,6.405782353,-172.7754876,0.011111111111111112,0.220010910234144,0.18213256200915162,64.31941364110516
4.417287484166936,2,Esmee,63.17934782608695,-25.407995554444444,-0.0049170206147376,-0.0237259705134257,0.074584286621198,0.1417408872966336,422.0,4.370672704,-171.6574622,0.008432147562582343,0.24942474857888142,0.054696072093852945,63.599308510949044
4.371197603631177,2,Esmee,69.29347826086956,-25.789933375,-0.2180950817342,-0.028028170685672,0.06088889261547,0.231306114294,423.0,5.7001920655,-173.669589,0.011594202898550723,0.22632243380396103,0.17949755940276804,64.38373373884069
4.723851484746546,2,Esmee,68.359375,-27.660410606666662,-0.1453553419465346,-0.0237721982524252,0.0673445884012475,0.169366930730693,424.0,5.70450818,-172.89542715,0.011111111111111112,0.11318267267103786,0.12431449361742972,62.57493024321411
4.807486373855364,2,Esmee,77.44565217391305,-24.606095266666667,-0.190740096607,-0.027546310412877,0.06822545841196,0.2149398156027,425.0,6.031420774,-172.873944,0.0158102766798419,0.29792937909542566,0.15972465563114194,65.16915532779109
4.669891101837513,2,Esmee,80.078125,-26.582884294000003,0.1472588812917623,-0.0080622118601336,0.0917923701858712,0.2287835668350495,426.0,5.0256943495,-172.51472145000002,0.01717171717171717,0.17835912473665225,0.13411582109577858,63.5566704090404
4.377561001519728,2,Esmee,87.63586956521739,-23.72594535,0.7648903520429999,0.0266459868464799,0.1126943462143174,0.78256566362,427.0,1.47470732915,-133.86202965,0.021080368906455864,0.35116710348306746,0.6340939561774881,69.70836426934584
4.442713662368639,2,Esmee,85.9375,-20.936539642222225,0.5871952471950496,0.0185073739630277,0.0886081212756435,0.5946487096881189,428.0,0.6979703761,-89.09898619,0.020202020202020204,0.5198901919750806,0.48451144306380417,70.5188142522518
4.318067342570165,2,Esmee,161.0054347826087,-20.113958687777775,0.461587739081,0.010598936448669,0.0758243770822,0.469718148422,429.0,0.57842963795,-96.05293076,0.05902503293807641,0.5696457362408675,0.3792997241376932,71.05064728675349
4.489854114551508,2,Esmee,70.3125,-24.515268481,0.3625824124346534,0.0094949533752693,0.0630004892670297,0.3691223579435643,430.0,0.70229321675,-97.819239195,0.012121212121212121,0.3034232288257651,0.2961581807836217,66.2527684346024
4.8413968041761,2,Esmee,109.375,-25.03460259333333,0.2886558941594059,0.0053130363197079,0.0545825076221584,0.295219870390099,431.0,0.6942764529000001,-90.56113731,0.03232323232323232,0.27201020950490623,0.2342180222536806,65.78433133855296
4.974269502663387,2,Esmee,93.75,-25.075418953333333,0.224195397772,0.0051407462865599,0.0537894314122958,0.234415701338,432.0,0.65919135635,-94.556889545,0.024242424242424242,0.2695413458681106,0.18154094882541344,65.17167222586912
4.596915400164261,2,Esmee,90.8203125,-25.73807856222222,0.1810517041267327,0.0009379585197722,0.0489601087275227,0.1910896066643564,433.0,0.77214545225,-94.742996735,0.022727272727272728,0.22945898154265917,0.14565461352625725,64.37329014126742
4.585256482336775,2,Esmee,112.09239130434784,-25.975331315,0.1432559550046,0.0007117640197661,0.0439594783737199,0.1575611518747,434.0,0.6514158114499999,-91.2467699,0.03372859025032939,0.2151082483057256,0.11422833020756612,64.16969742633583
4.886026025911737,2,Esmee,82.03125,-26.016333222222222,0.1103612705344554,-0.0028182624205702,0.0411599172574574,0.1253354696008911,435.0,0.6623325985,-92.80859288,0.01818181818181818,0.21262816145378183,0.08753309163218796,63.61543903413925
5.044876136251648,2,Esmee,92.73097826086956,-26.257382374444447,0.0915587757625,-0.0032793027254079,0.04488965928671,0.1085705849463,436.0,0.6515888060999999,-89.12541476499999,0.023715415019762844,0.19804779498793848,0.07436730938866856,63.44582031535987
5.075908258725272,2,Esmee,84.9609375,-26.34995938111111,0.0692207290552475,-0.0023552657011386,0.0394099035061663,0.0844042056574257,437.0,0.7147100150500001,-88.96074616499999,0.019696969696969695,0.19244807944831954,0.05575182281269565,63.14933092982079
5.277394243421536,2,Esmee,83.55978260869566,-26.514922279,0.0566716325448,-0.004691286899093,0.04135563138071,0.0749916717156,438.0,0.6652287798,-87.71850623,0.018972332015810278,0.18246995057993776,0.047938493986247964,62.952593999165444
5.3607683691005485,2,Esmee,85.59782608695652,-26.48149601,0.0430549173529702,-0.0061146678756571,0.0379176245995079,0.0658765300769999,439.0,0.66601434105,-93.75066697,0.020026350461133068,0.1844918089731859,0.037422860317706516,62.913811599442546
5.075483238949976,2,Esmee,71.2890625,-25.95221077555556,0.0332889799060693,-0.0028438874088495,0.0397972439129117,0.0583967694885148,440.0,0.69830654515,-91.34285889,0.012626262626262626,0.21650674290684793,0.03264377640786263,63.11175637867033
4.901268302439885,2,Esmee,83.55978260869566,-25.085902104444443,0.0299946923656789,-0.0078197460783347,0.03828668516206,0.0846205006312,441.0,0.70519444915,-89.63117769499999,0.018972332015810278,0.2689072503589263,0.03039298182323379,63.84947749920919
4.800771019427518,2,Esmee,75.1953125,-24.207937952,0.0204416694460108,-0.0028191785809717,0.0360058340228772,0.0613239360225742,442.0,0.6354387452500001,-89.11354412,0.014646464646464647,0.32201276418671265,0.023923962388531655,64.3484741622781
4.607886573095943,2,Esmee,81.52173913043478,-24.22346781888889,0.0173627316602999,-0.0066184911711657,0.0356639224293,0.0448366756482,443.0,0.6507988721,-93.41222548,0.017918313570487482,0.3210734074276522,0.02285254856161593,64.3940675490345
4.87101579897809,2,Esmee,83.0078125,-24.57825545333333,0.0175347004941386,-0.0053246743046743,0.035181718185396,0.0441433573041584,444.0,0.6666919587,-91.07994953,0.018686868686868686,0.299613328933036,0.022397517174545068,64.14827745833017
4.850573012982802,2,Esmee,90.6929347826087,-23.583815972222222,0.0143630007609601,-0.003612146705361,0.03478854746882,0.043885468172,445.0,0.65128607515,-87.935521145,0.022661396574440055,0.3597640987201709,0.020848651876013907,64.93718633113896
4.796128034924947,2,Esmee,254.7554347826087,-26.067482932,0.0107824020737673,-0.0040980485893717,0.0354210314064356,0.0420275949273267,446.0,0.6685979337,-88.03522527,0.10750988142292489,0.20953426335745498,0.02038360907779629,64.82767766137033
4.933243380523724,2,Esmee,90.8203125,-23.805489973333334,0.009735019838169,-0.006939522314245,0.035164160907609,0.0411499332215,447.0,0.6912503213000001,-92.1550531,0.022727272727272728,0.34635567914120435,0.020291093788620908,64.77314235454887
4.945255072906685,2,Esmee,761.2092391304348,-23.18752037888889,0.0065197941658169,-0.0049352222427972,0.0352049217896425,0.042693735760693,448.0,0.6604923537,-91.92047631,0.36943346508563896,0.3837348736693062,0.019458648952470688,72.14915697736421
4.977792157398361,2,Esmee,438.4765625,-23.29222123,0.0072944521829744,-0.0064630070639792,0.0321943004468613,0.0381841960200693,449.0,0.6224642644,-87.67431941999999,0.20252525252525252,0.3774018218231902,0.01737085561490334,68.71829375730256
4.567483240407214,2,Esmee,731.6576086956521,-22.430674935000003,0.0008965108185542,-0.0041638680473418,0.0326683412247,0.0382961951,450.0,0.6117187504999999,-87.27097179,0.35415019762845845,0.42951426690994526,0.016793915327732264,72.37152647811037
4.505855667776834,2,Esmee,1026.3671875,-27.192920194444444,0.0051714891950415,-0.0044805621482485,0.0344962797775148,0.039729518181792,451.0,0.6313546816,-90.27191702,0.5065656565656566,0.1414598164262843,0.01864709408452384,71.97800768110473
4.545875994223487,2,Esmee,73.3695652173913,-28.954985956666672,0.0005993458170839,-0.006546177193786,0.03283992192159,0.0389371401026,452.0,0.6193003332,-86.989684345,0.013702239789196307,0.034877551716925366,0.01724942611453306,60.8305708253033
4.565041195187005,2,Esmee,85.9375,-27.928491349,0.0013032075964891,-0.0054672826842405,0.0342121166760198,0.0381096280214851,453.0,0.6455135443,-89.99710181,0.020202020202020204,0.09696724345412883,0.018232340465142997,61.71350604921109
4.5283113246712015,2,Esmee,91.71195652173913,-28.924884004444444,0.00489747909196,-0.007043493117204,0.03233706722247,0.03817530996265,454.0,0.6008083846,-93.79724788,0.023188405797101446,0.03669833179721694,0.017219670921760445,61.04190546488272
4.559206726779771,2,Esmee,83.55978260869566,-28.33128332444444,0.002806202538294,-0.0043617261739089,0.0331453761250099,0.0389387771958415,455.0,0.65084869445,-91.52663703,0.018972332015810278,0.07260352112887189,0.017297205656563362,61.38906653911518
4.581650769550578,2,Esmee,89.84375,-28.906037433,0.001908499394679,-0.0031040265887338,0.0330405691268,0.03612476956814,456.0,0.6063698549000001,-87.214023225,0.022222222222222223,0.037838306427915205,0.0170406592672205,61.03482939571719
4.577674520474022,2,Esmee,96.8070652173913,-28.998227876666665,0.0017523294805792,-0.0043373386533247,0.0330362647652772,0.036963000870198,457.0,0.67682154595,-87.89249475,0.02582345191040843,0.032261972966806676,0.017144784155069835,61.04077098705041
4.580639057718677,2,Esmee,85.9375,-28.35715832111111,0.0031190416017717,-0.003602698241802,0.0346414586159366,0.0387110589778217,458.0,0.6494540612999999,-88.94868541,0.020202020202020204,0.07103841737212954,0.018479842767044962,61.40434015464232
4.655583431660136,2,Esmee,95.78804347826087,-28.56565458777778,-0.0014662152717912,-0.0022318105860765,0.028857108521643,0.03302446956254,459.0,0.6572439536,-89.88653684,0.02529644268774704,0.05842708085949303,0.013489781221199738,61.314972073838454
4.576105031900822,2,Esmee,107.421875,-28.396267214,0.001188579011998,-0.0013287146273965,0.031511739333297,0.0370860106466237,460.0,0.60950658915,-93.34198101,0.031313131313131314,0.06867283348545505,0.015641507968655394,61.57546869183733
4.554068947309237,2,Esmee,101.90217391304348,-28.762668841111108,0.001280265043352,-0.0024698916660317,0.0294184002935,0.03455854164021,461.0,0.6057184167,-88.789478175,0.028458498023715417,0.04651025814465426,0.013964219301083528,61.239006812618825
4.506889387299483,2,Esmee,111.0733695652174,-29.531597271111117,0.000707811606095,-0.0035181567662576,0.0301460671184455,0.0340498176788316,462.0,0.65129892165,-88.01843629,0.033201581027667994,0.0,0.014638698500521189,60.78114120855753
4.477130977584258,2,Esmee,98.6328125,-27.702213487,0.001839285172482,-0.003693420079378,0.02988013737196,0.0350586454577,463.0,0.6352357388500001,-85.35500113,0.026767676767676767,0.11065413727081384,0.01447597105533036,61.97901095104594
4.474363445252306,2,Esmee,97.82608695652172,-27.96001120888889,0.0022216998818445,-0.0059631960433348,0.0295518915899901,0.0343883332069306,464.0,0.6553421342000001,-88.38771163,0.026350461133069818,0.09506069823754018,0.014530662148019659,61.78398289869604
4.406328859215582,2,Esmee,90.8203125,-28.495132954444443,0.001687810127249,-0.005589869459041,0.02895359342686,0.0340300028772,465.0,0.65546793605,-91.68814586,0.022727272727272728,0.0626927306171903,0.013953276155847872,61.31848443119852
4.314200917245832,2,Esmee,83.55978260869566,-29.321340944000003,0.0027607520153101,-0.0068778887244623,0.0292898089632613,0.03372142506099,466.0,0.63255580965,-92.15101444,0.018972332015810278,0.012717797481469994,0.014517011763627095,60.64819630420286
4.524675268217136,2,Esmee,83.984375,-29.31524735111111,0.004068705343367,-0.0064024979483002,0.0291556556587,0.0332191266544,467.0,0.6383745860500001,-87.020989795,0.01919191919191919,0.013086381301801332,0.014444890340247658,60.65643408218198
4.720550532854589,2,Esmee,80.50271739130434,-29.26328698777778,0.0079093979919321,-0.0049725720566032,0.0308623336679207,0.0356672609386138,468.0,0.64706007525,-87.89596745,0.017391304347826084,0.01622931348851121,0.016211013939312475,60.672265960333156
4.845856508585077,2,Esmee,118.1640625,-28.826295254,0.0056990307081252,-0.0045009535889772,0.0294832707515148,0.0354796322345544,469.0,0.5880516926,-86.12874376,0.03686868686868687,0.04266168034102073,0.014643323930558757,61.366460492910456
4.734879592501387,2,Esmee,81.52173913043478,-29.26998415888889,0.001874952091382,-0.0036049531684487,0.0276657851099699,0.03290872603448,470.0,0.6571791264,-88.74572827,0.017918313570487482,0.01582422096615949,0.012641500625247687,60.64938892800564
4.662799328472898,2,Esmee,92.73097826086956,-28.824299412222224,0.0113353768043643,-0.0030022369558693,0.0340413721899207,0.0401862354559108,471.0,0.65808147455,-92.133940495,0.023715415019762844,0.04278240304118192,0.01934391998726444,61.14244849678756
4.557894475752992,2,Esmee,104.4921875,-28.128654222,0.012308756226961,-0.0028354829774557,0.0386759401557,0.0435809324804,472.0,0.64738680695,-91.24934598,0.0297979797979798,0.08485996983673179,0.02324598050085044,61.80024707800718
4.390523442934336,2,Esmee,88.65489130434783,-28.413597393333333,0.1147080508510736,0.0050809640933485,0.0479855978735831,0.140375325240792,473.0,0.6014168078,-91.74203324,0.021607378129117262,0.06762458103042956,0.09305353814490408,61.98807084010673
4.370977148627886,2,Esmee,70.3125,-26.29868092888889,0.870152846214,0.04007139279058,0.10547984104555,0.896124346693,474.0,4.265482930499999,-9.8346851155,0.012121212121212121,0.19554976480298092,0.7206316574893673,68.35407467997496
4.419651268511881,2,Esmee,68.27445652173913,-27.001126823,0.8882841157980198,0.0385294459846086,0.1324995566419901,0.903362148610891,475.0,5.7323042005,-6.5388161315,0.011067193675889325,0.1530608430866128,0.738550487648386,67.96647789174423
4.709860487914776,2,Esmee,76.171875,-27.04272830555556,0.8166299506379999,0.028328605011342,0.12404143536343,0.832281713245,476.0,5.629639085,-6.315353688,0.015151515151515152,0.15054448965582679,0.6781629637734488,67.53486788908782
4.563659294812893,2,Esmee,76.42663043478261,-27.16258156,0.7203090632485147,0.0330110045039821,0.1073911494832079,0.731304981339604,477.0,5.2303009295,-6.696835918,0.015283267457180501,0.14329491273006822,0.5969320853636034,66.80066098481325
4.565777037606464,2,Esmee,73.3695652173913,-26.03688619,0.6857503829039604,0.0462187950859336,0.0836865893332574,0.7016044417188119,478.0,5.1233349565,-8.8263180545,0.013702239789196307,0.21138497184121513,0.5663979844507946,67.34184833348486
4.585271515407857,2,Esmee,62.5,-24.101673056,0.6226767823570001,0.02708926572767,0.07872586489673,0.643904119111,479.0,5.0860367790000005,-6.989046657,0.00808080808080808,0.32844042058728934,0.5129207406504266,68.20626713386704
4.60228238874229,2,Esmee,73.3695652173913,-22.71485575111111,0.5941514943970296,0.0444036644826633,0.0815555802730495,0.6061844319475247,480.0,5.102607394,-8.9589627815,0.013702239789196307,0.4123249907674492,0.49053959970334005,69.14626148262003
4.836371328447893,2,Esmee,67.3828125,-21.46944861333333,0.560612190819,0.0456706353350359,0.07793373674219,0.579376172303,481.0,5.0943470485,-8.121769098,0.010606060606060607,0.48765606868485534,0.46260137137769913,69.76480500736108
4.668822233671052,2,Esmee,73.3695652173913,-22.693907947777777,0.518095364459406,0.0279869856340108,0.0768334094374158,0.5402207016732673,482.0,5.04345627,-7.5948329395,0.013702239789196307,0.4135920628415,0.4264848499333284,68.64902834934855
4.563518114129447,2,Esmee,73.2421875,-21.808096829,0.484900205262,0.036372167886378,0.070947033241755,0.506478158505,483.0,4.8762610395,-10.7900755945,0.013636363636363636,0.4671722169811498,0.39889959307677925,69.06999062111531
4.638210552730042,2,Esmee,74.38858695652173,-20.042946746666665,0.4507841999871287,0.037391825311493,0.0734925419849,0.4707216289594059,484.0,5.114452901,-8.918928617,0.014229249011857705,0.5739410432988086,0.371273375169485,70.14206450117874
4.695184109174326,2,Esmee,72.265625,-18.658320074444443,0.397066065116,0.0269020334964,0.06192773818176,0.448719135617,485.0,5.0292867015,-9.963596212,0.013131313131313131,0.657693108440981,0.3250188532969253,70.75509439029344
4.956541627183379,2,Esmee,85.59782608695652,-22.337990127,0.3289614794772277,0.0069381859642178,0.0735430480348396,0.4042313972881188,486.0,4.4768727645,-10.7503354165,0.020026350461133068,0.43512050304061833,0.27033461884948684,67.78464999650598
4.325465380915361,2,Esmee,69.29347826086956,-21.94266585444445,0.2992668740299999,0.013541768460945,0.0297277179994999,0.359164208795,487.0,4.63097747,-12.0535170645,0.011594202898550723,0.4590325256035065,0.24023991320648733,67.662193670865
3.925757656451228,2,Esmee,72.265625,-20.68637435111111,0.2793114832485148,0.0284636191009802,0.0768220102592851,0.3545018113465346,488.0,4.5339881535,-10.491839775,0.013131313131313131,0.5350219673321323,0.23193384392220906,68.53836062198953
4.157916657494704,2,Esmee,72.35054347826087,-21.027416894444443,0.2626537647811881,0.0003139433755029,0.0636107185886643,0.3631353834950495,489.0,4.8459306805,-13.1973538,0.013175230566534918,0.5143932896686694,0.21457191479881998,68.15279940574528
4.4553638489434775,2,Esmee,68.359375,-17.505730077,0.1950823502692,0.022950644494836,0.08004896115796,0.378281855338,490.0,4.510545587,-9.079826747,0.011111111111111112,0.7274099458273771,0.16612006170445015,70.28010206578635
4.563420348408448,2,Esmee,60.12228260869565,-20.080707720000003,0.1866931118204158,-0.0174194155436663,0.0272114827404059,0.4104213803233663,491.0,4.2166132815,-8.7697948855,0.0068511198945981535,0.5716569911698908,0.14724739471168072,68.1748854496241
4.739021846763012,2,Esmee,77.1484375,-23.52116214111111,0.13410714042262,-0.04309284938185,0.0606285921173913,0.2770692309547,492.0,4.088197463,-6.053435347500001,0.015656565656565657,0.36355384786331213,0.1171484531432017,65.61296511263667
