BrightnessEV_mean,trial,experimenter,Peak-Frequency_mean,timestamp,Sound pressure level (dB)_mean,Linear Acceleration x (m/s^2)_mean,Linear Acceleration y (m/s^2)_mean,Linear Acceleration z (m/s^2)_mean,Absolute acceleration (m/s^2)_mean,Inclination (deg)_mean,Rotation (deg)_mean,Peak-Frequency_norm,Sound-pressure-level_norm,Linear-Acceleration-norm,heart_rate
4.505161136542736,2,Kiara,49.8046875,0.0,-17.1827492125,0.32656141740898,-0.066182849107488,0.02652246148915,0.378477249491,39.52811879,-10.04400869,0.002988565488565488,0.5291995953155556,0.26062850594640574,68.49519450112922
4.639183672538795,2,Kiara,46.875,1.0,-16.110023702,0.268741800652,-0.0637234086085527,0.10893073323343,0.32767351266,25.10324535,62.079718873,0.0,0.5749963030170188,0.22961214949750886,68.7368528321843
4.602771657155127,2,Kiara,80.50271739130434,2.0,-13.881960586666668,0.1840637427631782,-0.0080851752124554,0.0688696232946633,0.3111735902954455,32.28352620333333,104.83446889666668,0.03430353430353429,0.6701165870361544,0.14641141231932106,69.8987610290591
4.477671376583086,2,Kiara,49.932065217391305,3.0,-14.61227650111111,0.0868390494387901,-0.0524624722225049,0.0913600004307856,0.3039780759282178,4.173761667,-118.79714,0.0031185031185031182,0.6389380011479996,0.09645756560816449,68.50128660101137
4.073640909038086,2,Kiara,46.875,4.0,-18.09230962555556,0.012103165934306,-0.04891674268421,0.090224642518627,0.3000102200496,4.364393448,-109.84140145,0.0,0.490368718296408,0.0689041426485469,66.43565776074527
4.935688808142265,2,Kiara,46.875,5.0,-16.117163123,-0.0532409757980198,-0.0076619388261455,0.0864008436826831,0.277788364159901,4.456975298,-116.6865525,0.0,0.5746915074532941,0.06760312865632168,67.4371231186901
4.677006760920835,2,Kiara,57.29166666666666,6.0,-13.74567920111111,-0.1058519552899699,-0.01376227280523,0.1090749314184,0.293182643752,10.5556934835,19.97577583,0.010626010626010615,0.675934700540819,0.10981436507685079,69.20225153962485
4.305411766217574,2,Kiara,60.9375,7.0,-16.785231505555558,-0.0757813296194851,0.0063879043538514,0.0418200389615574,0.2806671319845544,4.9370871065,-32.033053831000004,0.014345114345114342,0.5461703879860916,0.05516021735625803,67.28222868158545
4.128721465608281,2,Kiara,49.3421052631579,8.0,-14.363316335,-0.07995646952897,0.020323418142924,0.11342717775601,0.416018371655,3.385100459,-10.70180553,0.002516686727213045,0.6495665877203315,0.09955281282769342,68.64155528980979
4.079466047895684,2,Kiara,58.59375,9.0,-13.968837466666669,-0.1553675090433663,0.0001443386637722,0.0597124609608019,0.3441706907762376,3.806402643,37.975425115,0.011954261954261951,0.666407646547249,0.12129904400749314,69.20636934971218
4.132331009776706,2,Kiara,53.90625,10.0,-14.887034647777776,-0.1991427820150495,-0.0376263608899901,0.1056451708880891,0.3324440592831683,3.4633210965,-5.3502359035,0.007172557172557171,0.6272080493492174,0.17286160380943152,69.0528405661172
4.1517688755656,2,Kiara,49.00568181818182,11.0,-16.462332765,-0.15999225654812,0.03941814916736,0.110822822049437,0.486060955178,2.614808051,-12.674374111,0.002173502173502175,0.559955553989556,0.1479766666605732,67.9467500246293
4.1794819353469865,2,Kiara,51.33928571428572,12.0,-13.865584875555555,-0.1094637869767821,0.147638327230198,0.0295270785469009,0.5767617559366336,3.3162988795,-157.40209199999998,0.004554004554004561,0.6708156975241764,0.13765691381152573,69.24212377186241
4.143495064353917,2,Kiara,75.0,13.0,-14.100860596666667,-0.632885523142,0.441996580176,0.14510959655971,0.8096638486090001,3.2907635615,-128.5226041,0.028690228690228685,0.6607713261323238,0.635269946412967,73.5852200586962
4.063846610319301,2,Kiara,54.6875,14.0,-14.3831578592,-0.6665198831264356,0.5899498632480298,0.1521880232970099,0.951909067460396,2.6419172405,-118.57620855,0.007969507969507968,0.6487195150300257,0.7328744005355436,73.80701954403482
4.013938877976838,2,Kiara,53.04276315789474,15.0,-13.488802280222224,-0.455512430852,0.669203481853,0.215999578515167,0.8654489885540001,3.78081942,-74.43737295,0.006291716818032609,0.6869012685454495,0.6787555563168183,73.7986940094406
3.5254285722918235,2,Kiara,58.59375,16.0,-13.141237651111112,-0.1235593998690693,0.701406166400396,0.2500908264654455,0.857834364140594,2.62842135,-66.859092565,0.011954261954261951,0.7017394685984621,0.6098384200833696,73.53866622293374
1.7323884891408146,2,Kiara,61.19791666666666,17.0,-11.632945068555555,-0.034318963677288,0.658934948189,0.24814083418323,0.776389593053,2.319797011,-92.453213885,0.014610764610764599,0.7661313692808519,0.5684108001789852,74.0330781250174
0.6797063040715455,2,Kiara,51.0110294117647,18.0,-12.59031848,-0.0524687783298514,0.5778429615372198,0.2463905926273099,0.7229437963059406,13.941405455000002,-155.53528795,0.004219151277974804,0.7252592637366873,0.5064901759421944,72.8394155979373
0.6142534481950911,2,Kiara,50.223214285714285,19.0,-12.601987274444443,-0.1403932601418712,0.5196241457683168,0.2746283022273267,0.7416214665346534,6.207768720500001,-75.07158869,0.0034155034155034136,0.724761100541005,0.4848197768531494,72.64400148962733
0.9679487305006724,2,Kiara,71.69117647058823,20.0,-12.185154231111111,-0.1697640363660099,0.6010932749671,0.1060166797561699,0.784261711371,2.7300945665,-80.87818720499999,0.025314907667848836,0.7425565019358596,0.5091236021547756,73.4899649938255
2.0847369909247164,2,Kiara,64.453125,21.0,-13.834675282222223,-0.1221992910594841,0.4583247852092673,0.1930864889693564,0.6140803918039603,1.6072401874,-7.890912969999995,0.01793139293139293,0.6721352872954663,0.4083173929415606,71.69079044970594
4.159256142349273,2,Kiara,60.12228260869565,22.0,-13.549928888599998,-0.12146787649906,0.40531264605525,0.18527469389812,0.5608695833959,1.6986301393999998,-50.4038198545,0.013513513513513507,0.6842916564972061,0.3666191441739036,71.41472330162797
4.247748939656817,2,Kiara,60.72443181818182,23.0,-10.102262825666667,-0.1641561210363168,0.4043224226977228,0.1162831898087128,0.6759788376970297,2.03619252245,29.70055975,0.014127764127764127,0.8314791274680594,0.3580628413649813,73.12480754309185
4.344748825053804,2,Kiara,66.796875,24.0,-9.996182341555556,-0.174828152062991,0.386457647225,0.03550769067615,0.5770688914000001,1.998197438,-95.357659795,0.020322245322245316,0.836007906616233,0.33651119671099405,73.13062935952766
4.157002109931977,2,Kiara,50.07102272727273,25.0,-15.79524920222222,-0.147840657354594,0.3240088098362376,0.1578328210818376,0.476750602430693,1.941730438,-94.052859185,0.003260253260253259,0.5884346296132402,0.3065408125514281,69.57874712097538
4.17895369876292,2,Kiara,53.57142857142857,26.0,-15.766721755,-0.125716459647262,0.2908149045137,0.03490155660731,0.402936847192,3.1374765705,-102.39841815,0.006831006831006827,0.5896525210021528,0.24774814972258782,69.19443558642668
4.289631539817592,2,Kiara,73.3695652173913,27.0,-12.751961403333333,-0.163820873763099,0.2567078020120594,0.0805425125317029,0.4147315893643564,2.914640089,-123.7891436,0.027027027027027015,0.7183584175841089,0.24463943664077323,71.11795704467603
4.3322081223109965,2,Kiara,57.12890625,28.0,-14.530954128888888,-0.2151338306087425,0.2209747521796039,0.1285468735959604,0.4073656384623763,2.270522969,-127.2718577,0.010459979209979207,0.6424098090557977,0.26051761577954824,70.00225821910554
4.355729125112375,2,Kiara,60.9375,29.0,-14.914323695000002,-0.2461778747393999,0.2118026152309,0.13882134881607,0.4159975472019999,2.588302468,-121.2048199,0.014345114345114342,0.6260430276294437,0.27634137862598995,70.01014964746354
4.493142811954408,2,Kiara,67.70833333333333,30.0,-13.324865036666669,-0.2476455049665346,0.2113576006815346,0.1749012488241386,0.4250181793821782,1.40245489295,-140.66468685,0.021252021252021244,0.6939000636249083,0.28996079286841525,71.07152753148665
4.516616208302936,2,Kiara,51.33928571428572,31.0,-13.516254854444444,-0.2893769108302,0.071085640027135,0.0799069849105,0.415438712427,1.966873026,-143.5741214,0.004554004554004561,0.6857292655446803,0.2392515817539081,70.23384393164753
4.537537588725963,2,Kiara,47.89402173913044,32.0,-16.104487274444445,-0.3324100453277228,-0.1402049146683306,-0.0104343968572376,0.4280870787495049,1.2650159792,16.42781445,0.0010395010395010417,0.5752326637187922,0.2827682726314412,69.18572816646706
4.581427499829878,2,Kiara,76.42663043478261,33.0,-13.6745507869,-0.423462230584,-0.4324282425306,0.0636021760982,0.73021070904,0.8914159083,-167.39244535,0.03014553014553014,0.678971308846495,0.4883929514955953,72.6577099210333
4.9075329682501,2,Kiara,59.5703125,34.0,-14.079846428888889,-0.4033894176633663,-0.4738502101742574,0.0237884763790693,0.687129987039604,1.1355783189,-170.366806,0.012950450450450448,0.6616684612240957,0.5001685903603669,72.2003792665811
4.626276557126414,2,Kiara,48.91304347826087,35.0,-17.304371621111112,-0.366671723781,-0.408067543444,-0.05887399472166,0.587260181192,0.9846381769,160.7256426,0.0020790020790020765,0.5240073016275693,0.4412180933018378,69.85941240752558
4.321424834471173,2,Kiara,67.3828125,36.0,-14.323271449,-0.2675152365733663,-0.2544872929220792,0.0354620024410697,0.446397525860396,1.6099002905,-124.28854775,0.020919958419958414,0.6512761806414746,0.291076392485257,70.56232447597893
4.069393624556466,2,Kiara,62.16032608695652,37.0,-13.666956028888888,-0.2320636033536633,-0.1207885027473366,0.1033933502394752,0.5194190332343565,1.6188044675,-136.4774419,0.01559251559251559,0.679295543619784,0.2166664898235741,70.19672875387631
3.977740106298172,2,Kiara,52.734375,38.0,-15.6181893,-0.2048367300056,-0.0055167661076,0.168558135849241,0.429779375648,1.4401742939,-112.42002705,0.005977130977130976,0.5959936561380603,0.20340152063624256,68.89867865828928
3.939369429533013,2,Kiara,60.12228260869565,39.0,-12.77422539111111,-0.1715779984642871,0.0611945260552178,0.1724705554871089,0.3523414760970296,2.019682525,-107.1767784,0.013513513513513507,0.7174079252815136,0.1913851575684731,70.41024663419621
3.848243055802054,2,Kiara,59.5703125,40.0,-12.164002637777775,-0.1255223995100799,0.16150311056172,0.17790753546807,0.3540343387080999,2.6845767165,-93.702791635,0.012950450450450448,0.7434595039879461,0.20818412087343627,70.84599602385185
3.8285258268130336,2,Kiara,54.00815217391305,41.0,-13.740438302222223,-0.124695613874792,0.2062252013585148,0.2167502343941386,0.373321907410891,2.899378506,-80.60616134,0.007276507276507278,0.6761584445574924,0.25222005132708725,70.27719189083675
3.7098697837678754,2,Kiara,66.23641304347827,42.0,-12.860197061111112,-0.113269882715188,0.19902844293176,0.22785800667546,0.383815487758,2.465589758,-78.047796795,0.01975051975051975,0.7137376299421573,0.2513260484288379,70.97047034174699
3.597971132672842,2,Kiara,58.59375,43.0,-12.516302529,-0.0877016950234059,0.1642513618089406,0.1347338182707128,0.3854763769092079,2.582230529,-70.88799247,0.011954261954261951,0.7284191465212524,0.1739281443050314,70.37154015178052
3.858143242470024,2,Kiara,48.91304347826087,44.0,-15.23304031111111,-0.1299616679625643,0.1080332548128,0.1819545424423168,0.342485443830693,3.040826477,-73.66858540000001,0.0020790020790020765,0.612436404532696,0.18928742782241645,68.90511631855172
3.3455690125135007,2,Kiara,48.828125,45.0,-14.284515524444446,-0.14268639909975,0.0646712634607334,0.2335564808582,0.3919412429593,2.5509522285,-54.392834825,0.001992376992376992,0.6529307453285244,0.21660279715909259,69.60783886106258
3.315892210658822,2,Kiara,88.65489130434783,46.0,-13.69151270777778,-0.1965759100256831,-0.0284637464676534,0.0693466113568455,0.3497003365811881,1.867002595,-33.768644835,0.042619542619542615,0.6782471719401834,0.15777917397922053,70.25359030750681
3.633247781213076,2,Kiara,47.8515625,47.0,-16.186473728000003,-0.2547259012066999,-0.28465372408085,0.01974492459303,0.481517997574,1.991189633,-10.5693550201,0.000996188496188496,0.5717325049062985,0.3006829823220616,69.28617768737584
3.4564360820771736,2,Kiara,49.932065217391305,48.0,-15.299361302222223,-0.2369347652019802,-0.4465570379297029,-0.0127669553856762,0.5819001844237623,2.106473103,19.9502772495,0.0031185031185031182,0.6096050343315983,0.4029640154924254,70.60134259828865
3.121734271559752,2,Kiara,82.54076086956522,49.0,-13.76831555,-0.20221637596563,-0.4898717005981,-0.064118800985558,0.608816007616,0.4321095324,-31.44545482,0.03638253638253638,0.6749683114288367,0.42633711748473757,72.23796740467466
2.7354242360689875,2,Kiara,46.875,50.0,-16.291518396666667,-0.3584839638376237,-0.3592120541772277,-0.0949695792799703,0.5869475700237624,0.17784777045,2.0619493250000005,0.0,0.567247946704376,0.4117781602066138,70.10120064210543
2.6095350688307115,2,Kiara,51.97010869565217,51.0,-16.78491272,-0.306074311577,-0.2800026938083,-0.093717716520866,0.491780569987,0.2781694583,21.70053674,0.005197505197505194,0.5461839975523455,0.33620950578253045,69.34783412083848
2.778623575933239,2,Kiara,140.625,52.0,-14.227877909,-0.2260447210824752,-0.2459599784781683,-0.0581009162201584,0.4679249568881188,0.9667997594,0.6884741400000038,0.09563409563409561,0.6553487136662105,0.2646266458119339,71.89387964317191
3.066752000137563,2,Kiara,51.97010869565217,53.0,-15.774414225555557,-0.1870107615228099,-0.2159561926343267,-0.0331182820888118,0.6354117132950495,1.50089605,90.091118435,0.005197505197505194,0.5893241146930955,0.2218817624672865,68.95089358000554
3.0813336594784198,2,Kiara,51.7578125,54.0,-14.884111021111112,-0.18709305279782,-0.24326348303932,0.05569886892434,0.6413370400949999,2.1284001986,-162.93864005,0.00498094248094248,0.6273328645741475,0.2420700461682373,69.56417359385452
3.0927227919491806,2,Kiara,85.59782608695652,55.0,-10.9665719462,-0.3993017475212871,-0.1757999282371821,-0.0373517993781089,0.7302832309980198,3.3131282935,168.37373735,0.03950103950103949,0.7945801148414983,0.34667193549435077,73.09835765207357
3.011756867793375,2,Kiara,74.21875,56.0,-10.961023803111113,-0.676763236603,-0.094610125886086,-0.00035471548301,0.797814751245,3.9103651265,167.9487708,0.027893277893277887,0.7948169757018401,0.5504763046206345,74.49947970325272
3.001512616989013,2,Kiara,66.23641304347827,57.0,-12.487568955555556,-0.6048667113891089,-0.1887411118379109,-0.1089668235775613,0.7004968441247524,4.1275708545,155.684028,0.01975051975051975,0.7296458378335905,0.5169214788203762,73.28613227957649
3.1562817621882737,2,Kiara,95.78804347826087,58.0,-13.026800537,-0.472722125529,-0.26081631133073,-0.034337171653237,0.598879242888,3.1104522545,165.4130581,0.04989604989604989,0.7066250082951017,0.4322802544812418,72.93566313331215
3.0000977296615416,2,Kiara,86.9140625,59.0,-12.259274933125,-0.3343066604643564,-0.2517558095534356,0.0327667602245544,0.4724206020841584,3.2184618765,-178.5598946,0.04084372834372833,0.7393921471297779,0.33164036739042224,72.34270327155528
2.45234695971859,2,Kiara,47.89402173913044,60.0,-14.390509648,-0.292352540974,-0.1560682361666,0.022625958842665,0.364401526478,3.4710568815,174.5967828,0.0010395010395010417,0.6484056530779597,0.25890079047123593,69.87286418149543
2.195568949081996,2,Kiara,57.6171875,61.0,-13.165825364444444,-0.2612849503233663,-0.0545407579252079,0.0526117933213861,0.3468580671118812,3.3856394425,-176.55783005,0.010958073458073456,0.7006897719989572,0.20898255571601648,70.29929917887709
2.344265555409417,2,Kiara,76.42663043478261,62.0,-14.715243122222224,-0.1797003474487326,0.047872559901799,0.0253072645969297,0.3119455482851485,3.667718193,-178.0351545,0.03014553014553014,0.634542158778375,0.13893004049750984,69.32885683223118
2.57211528076288,2,Kiara,49.8046875,63.0,-16.423519433333336,-0.12559390401596,0.1006915619897,0.112256290353,0.3275209287669999,3.8728949475,-176.35779115,0.002988565488565488,0.5616125694961879,0.14604424899482255,67.96747613568414
2.6377329909547247,2,Kiara,54.00815217391305,64.0,-12.6280722765,-0.0894006187303138,0.1191113056430483,0.1029206636526732,0.4375436678247524,4.17253476,176.9079122,0.007276507276507278,0.7236474818167019,0.13340887117102607,69.89657089669878
2.652193071004016,2,Kiara,69.29347826086956,65.0,-12.43068075888889,-0.14743026581543,0.14534046802075,0.09751821958214,0.39309924155,3.9734879225,-4.050019000000006,0.02286902286902286,0.7320745039638407,0.17310638580823096,70.6271255914124
2.636225712519741,2,Kiara,50.78125,66.0,-14.5944756675,-0.1117280713055247,0.0762404525608287,0.0839709029601782,0.2894808766755445,3.245481108,175.4389189,0.003984753984753984,0.6396979528465011,0.11528759554509221,68.67837127821383
2.5877162945681302,2,Kiara,46.875,67.0,-15.223002268888887,-0.0500426547573941,0.0357551302230922,0.09476781213367,0.2381360766856,3.6903741415,176.1097209,0.0,0.6128649477910099,0.0769024087104301,67.96959864317556
2.551689632128043,2,Kiara,75.1953125,68.0,-13.22176457111111,-0.0418661060461336,0.0515328836155321,0.0567683068356039,0.2155649923576237,3.455164173,175.98986185,0.028889466389466382,0.6983016200703517,0.05562993565300418,69.40244825385759
2.753348550694569,2,Kiara,46.875,69.0,-17.399044423,-0.00700847706651,0.019989007839871,0.06435663063557,0.1667730877566,3.405907063,175.9220917,0.0,0.5199655382939434,0.03935367757903056,66.55441588015957
3.349595621718787,2,Kiara,46.875,70.0,-16.598156245555558,0.0136280078265821,0.0071165651196534,0.0753707950214455,0.2244255496339604,2.0020679105,179.49414325,0.0,0.5541569893268223,0.046967443576852876,67.02562342053669
3.0785421348489974,2,Kiara,77.44565217391305,71.0,-14.596258863333333,0.1984437506417821,-0.0627298152884257,0.0605699985594455,0.3885168964337624,1.755272297,-179.62137489999998,0.03118503118503118,0.6396218247992475,0.163071194527126,69.6037320775086
3.634809025265972,2,Kiara,46.875,72.0,-17.06510102,0.2235246190819,-0.0759793356078,0.07797776626926,0.30682722328,2.8683807455,179.88969475,0.0,0.5342222221019891,0.1895346511282087,67.92694387424953
3.767655300684533,2,Kiara,46.875,73.0,-18.735059453,0.0281150439966316,-0.0203922080075742,0.0650979376270732,0.1365932553972277,3.762138279,-179.35528205,0.0,0.46292849646471235,0.04436105085293368,65.91003036440001
3.762120061510062,2,Kiara,70.3125,74.0,-14.800549694444443,-0.10869339986224,0.013995958243458,0.073152877809243,0.1567109184584,4.900422569,-179.00626469999995,0.023908523908523903,0.6309002577376757,0.09250093888876679,68.78898108213272
3.7047391489855097,2,Kiara,51.7578125,75.0,-16.28400657888889,-0.2870028349138614,0.067485846420792,0.071891915911,0.3107004798059405,5.448476491999999,-177.36143905,0.00498094248094248,0.567568640600166,0.23506755705534463,68.7909829932636
3.7964932762470425,2,Kiara,46.875,76.0,-19.33826805777777,-0.282349021375,0.06368076852021,0.07562862984584,0.307999113229,5.735717252,-178.9149492,0.0,0.43717636520129255,0.23148872450678487,67.0980261784698
3.8063051097165914,2,Kiara,111.328125,77.0,-14.579375752222225,-0.2682087346237624,0.0575792852473564,0.0856676433636267,0.2933457785316831,4.735308355,-175.62737975,0.06574844074844073,0.640342597165597,0.22171327242858502,70.77278616038465
3.819429391066525,2,Kiara,51.97010869565217,78.0,-16.424138915999997,-0.1142991043146,0.018475140318183,0.08288046364144,0.1528510777951,3.767724484,-170.98310935,0.005197505197505194,0.5615861225940368,0.10132412848489701,67.65357660295773
3.718753920013409,2,Kiara,46.875,79.0,-19.729266554444443,0.0458398759732118,-0.0299900275114257,0.0833323464844622,0.1192667244345049,1.8942191762,-106.395647775,0.0,0.42048389011024256,0.06589954031698035,65.57300300385876
2.634221128740748,2,Kiara,86.61684782608695,80.0,-14.91849340777778,0.2844196377950495,-0.0975559402582376,0.0778748506483168,0.3293967158069307,0.6753239323,-68.013593065,0.04054054054054053,0.6258650146005619,0.24099352913807742,70.24913921912217
2.4933134523718987,2,Kiara,127.37771739130434,81.0,-16.12164466,0.615032647523,-0.1947871241248,0.05406023351091,0.652294268549,0.6928298501,-62.52481872,0.0821205821205821,0.5745001820508184,0.5206336596787184,72.70148310445121
2.331370501307257,2,Kiara,46.875,82.0,-18.748250948,0.4720455459415841,-0.151985696609901,0.0516626802247623,0.500239657420792,0.7799345933999999,-58.15897363,0.0,0.4623653262643704,0.3970786543551419,68.72501315001358
2.1617457059363923,2,Kiara,105.97826086956522,83.0,-13.676029935555556,0.372390350759,-0.1191232633448,0.045718835395692,0.395268028745,0.75821254855,-61.51834541,0.06029106029106028,0.6789081611559046,0.3099389506286636,71.83223074472137
2.0654130631516354,2,Kiara,46.875,84.0,-14.895932306666667,0.2891624631247524,-0.0982862936788118,0.0497048124279995,0.3144571580415841,0.76592545615,-64.12454429,0.0,0.626828191240714,0.2400153211186402,69.4420608638377
2.1163908027657907,2,Kiara,46.875,85.0,-18.39207497111111,0.22722834378,-0.0786127519692,0.046427213877154,0.249221753124,0.85356175805,-67.66647395000001,0.0,0.4775711612558965,0.18642474631300013,67.22225190557477
2.1910798775203117,2,Kiara,98.6328125,86.0,-14.00733985,0.1787464834940594,-0.067208045783891,0.0434260954189554,0.1998480636554455,0.7428615787499999,-58.633798690000006,0.05279799029799029,0.6647639060208358,0.14570322473867547,70.19875247611924
2.1638948106106826,2,Kiara,51.97010869565217,87.0,-14.902205788888889,0.1418388735212,-0.05389133229964,0.04675033101568,0.168065569351,0.65494663345,-52.46053296,0.005197505197505194,0.6265603642628065,0.11492530599173402,68.54207692303765
2.1457227538752144,2,Kiara,46.875,88.0,-17.021447304444443,0.1125955314397029,-0.0468464878965495,0.045767280041491,0.1358610065439603,0.70356872075,-65.416086285,0.0,0.53608588287244,0.0912508574864035,67.1630374543605
2.1413813835877047,2,Kiara,86.61684782608695,89.0,-13.919049876666667,0.0876403719875247,-0.0379375051330603,0.0473760748494851,0.1107941737022772,0.7852508022,-64.93253656,0.04054054054054053,0.6685331741720443,0.07161221186513704,69.40610659579644
2.1020344286980794,2,Kiara,46.875,90.0,-14.765372955,0.0668003863437,-0.035839296506558,0.04288374272105,0.0929661693153999,0.7801757971000001,-67.14101007,0.0,0.6324020201535585,0.055414392827033115,68.03213938445897
2.08567310243052,2,Kiara,46.875,91.0,-19.288336574444443,0.0527046080995049,-0.0315891281004064,0.0447821631478722,0.08642365793,0.75293265865,-60.26369343,0.0,0.4393080359082296,0.04622900844993045,65.6415284984982
2.084174222513196,2,Kiara,80.50271739130434,92.0,-13.656859966666666,0.0411665718957,-0.028605353727429,0.04352727557866,0.0807176015357,0.64315252125,-58.114892955,0.03430353430353429,0.6797265638630813,0.03822172383152767,69.14856324307988
2.081155480503114,2,Kiara,56.640625,93.0,-14.477925463333332,0.0306780910145255,-0.0270011667848613,0.0472229009578712,0.0689012651031683,0.69705470975,-60.18850744,0.00996188496188496,0.6446737044069156,0.03495209206059531,68.21493888860545
2.109131752849047,2,Kiara,46.875,94.0,-17.77227524111111,0.02476483853397,-0.023897215152886,0.045530110664049,0.0828943740917999,0.7077912162,-57.220413695000005,0.0,0.5040315994485387,0.030486486752998285,66.29227108740645
2.270394437183353,2,Kiara,76.171875,95.0,-13.680416893222224,0.0199256497702851,-0.0249075451687049,0.0439259570957623,0.0633807807493564,0.7652142710000001,-66.07951033,0.02988565488565488,0.6787208735264108,0.02817169982348801,68.96773717861792
2.275041471308923,2,Kiara,85.59782608695652,96.0,-13.056660527777778,0.0131793708228879,-0.0235029330157949,0.0446586884202239,0.0707771358169,0.7695897027,-65.96378985,0.03950103950103949,0.7053502280682559,0.02640551228792523,69.46546762514326
2.297006686661777,2,Kiara,46.875,97.0,-17.82428748,0.0154394491835841,-0.0256830422755207,0.0458147698525247,0.0617922766272277,0.7987675815999999,-62.829777805,0.0,0.501811097299594,0.02855308322906034,66.25015783342761
2.30349161150434,2,Kiara,46.875,98.0,-16.148084797777777,0.0086311647590851,-0.0248697133934544,0.0449547660054356,0.0595096478262376,0.6584686641499999,-63.499254405,0.0,0.5733714019019891,0.02635333501732936,67.09128350296251
2.302235268261518,2,Kiara,87.63586956521739,99.0,-12.976577596666663,0.0093336051951648,-0.024767339314669,0.04330840260412,0.0687165777122,0.69211585695,-59.317757670000006,0.04158004158004157,0.7087691218598864,0.025241103286876652,69.53875912021448
2.3073041053640813,2,Kiara,52.734375,100.0,-16.682711337777775,0.004871095004217,-0.0230188322775594,0.0472129722693722,0.0683174339810891,0.65166396865,-50.58089287,0.005977130977130976,0.5505471704073801,0.02689760577238965,66.9412895106103
2.3346373176452127,2,Kiara,46.875,101.0,-18.349208590000003,0.0056417821357249,-0.0243823337853479,0.0442483717564,0.0603808747011999,0.74034802825,-55.901466285,0.0,0.4794012092101489,0.02530723254330845,65.95527237086826
2.439270394822136,2,Kiara,63.4765625,102.0,-14.235625105,0.0041942327539485,-0.0237234507102514,0.0444780153031346,0.0592824710586138,0.6624516695,-55.62990388,0.01693520443520443,0.6550179710230598,0.025097988489348,68.3997036488956
2.6898609218214165,2,Kiara,173.2336956521739,103.0,-14.6254538,0.004964643134515,-0.0218970624802109,0.045370662938935,0.0569168020626,0.6862218250500001,-53.486218065,0.12889812889812885,0.6383754370068447,0.025130300313974577,70.43951022455651
3.2224924683923235,2,Kiara,46.875,104.0,-17.325874027777775,0.0031641679228366,-0.0208325626869821,0.0459627854584752,0.0552699518985148,0.6361025248,-65.71417484,0.0,0.5230893226820212,0.02508073121317076,66.47771772188962
3.3073037916149284,2,Kiara,46.875,105.0,-16.11338087111111,0.0028875140603889,-0.021108395881045,0.04469682396058,0.054970585611,0.70968600175,-60.59967711,0.0,0.5748529790343401,0.024210615564491632,67.09192067292801
3.300425744756965,2,Kiara,94.76902173913044,106.0,-13.840021759,0.0020032546351247,-0.0219975263296133,0.0471502507496534,0.0603009975456435,0.70102760085,-60.71794444,0.048856548856548845,0.6719070359563979,0.026330375881760952,69.25065841566183
3.2335014146341985,2,Kiara,61.5234375,107.0,-17.159803203333333,2.11017185356435e-05,-0.0194207408889677,0.0441914148973663,0.061624835250198,0.7366334636,-59.18175713,0.01494282744282744,0.5301792044181964,0.023177588294454318,66.84642770823054
3.3065884155985,2,Kiara,46.875,108.0,-18.793507135555554,0.003429843312157,-0.019745782672274,0.0481265316900533,0.06752556715191,0.69620962775,-60.61465183,0.0,0.46043325289343107,0.026384340593122366,65.73627375946614
3.4580395185902044,2,Kiara,46.875,109.0,-16.076623753333333,0.0037721198679408,-0.0184591214078287,0.046576719945093,0.0561434427345544,0.72912509875,-61.0383077,0.0,0.5764222108297437,0.02481529574548404,67.1155888959208
3.554985821120032,2,Kiara,122.28260869565216,110.0,-14.759064368,0.0013944121944341,-0.018834916573733,0.044482891879982,0.05576292090861,0.6997787310000001,-57.560864575,0.07692307692307689,0.6326713458217004,0.023223826470560954,69.31630830008643
3.584375728109237,2,Kiara,46.875,111.0,-16.518605512222223,0.0002548839655053,-0.0216830763868455,0.0463066191069346,0.0575460266372871,0.74956989145,-59.33970869,0.0,0.5575531625754716,0.025553772886089548,66.89506813399437
3.5779473138220825,2,Kiara,46.875,112.0,-18.322348316666663,0.0003454505767909,-0.02021158941241,0.044863878911395,0.0568138183706799,0.75688040115,-61.151200565,0.0,0.48054792575094885,0.023955672141127426,65.9582204861404
3.591059081693548,2,Kiara,46.875,113.0,-14.83973122777778,0.0022693080126356,-0.0219598942856337,0.0449981511882314,0.0572962637468514,0.77720253745,-65.07736803,0.0,0.6292275229963106,0.024714876419559235,67.7484492873122
3.649875747480439,2,Kiara,88.8671875,114.0,-15.442537427,0.0026170682766283,-0.021973979678612,0.0468815542286,0.058794590399,0.66188588795,-57.579780755,0.04283610533610532,0.6034925711971848,0.026142874652277548,68.30777595830654
3.6753476863363286,2,Kiara,46.875,115.0,-18.79464348666667,0.0005958540705696,-0.0214809031162821,0.0447980722044059,0.0571197255453663,1.2816375686,-40.32416586,0.0,0.460384739886914,0.024352429321876118,65.71943631321798
3.624919349357429,2,Kiara,46.875,116.0,-17.422871261111112,0.0021180963387138,-0.02490120875569,0.0447284613913049,0.0718755027579505,5.790058752,-10.283862495,0.0,0.5189483249157363,0.025640299308222356,66.43250229345462
3.641317145953417,2,Kiara,75.40760869565217,117.0,-14.940906408888887,0.5271023731354,-0.17337942389662,0.033391899078985,0.5630828347413,7.2466130705,-7.784389773,0.029106029106029097,0.6249081606332133,0.4446504850714298,71.63822239029058
3.745102678177934,2,Kiara,56.640625,118.0,-15.536055576,0.9008604468920792,-0.2814535081237624,0.0235797018344468,0.9463685913356435,7.136865051499999,-6.418057815,0.00996188496188496,0.5995001022080408,0.7669789125870049,73.52907022643024
3.872521163391073,2,Kiara,51.97010869565217,119.0,-18.097874885555555,0.735617005079,-0.2317905428,0.031343169199411,0.7749991742429999,7.1017436785,-7.4330861065,0.005197505197505194,0.49013112668233,0.6240099744692547,70.97760341989209
3.770922083832693,2,Kiara,61.5234375,120.0,-17.282766575555556,0.5872583110069307,-0.1823923035031683,0.041341510933693,0.619514242140594,7.0907697815,-7.4575994765,0.01494282744282744,0.5249296624239704,0.49482490093205617,70.55661170540064
3.6797116423587193,2,Kiara,58.08423913043478,121.0,-17.31903221,0.468467711885,-0.1576234113472,0.055108925786686,0.508287057947,6.934980468999999,-5.876243456999999,0.01143451143451143,0.5233814129938937,0.39603525161898884,69.67754919756887
3.654660044980808,2,Kiara,62.16032608695652,122.0,-17.280101770999998,0.3690610821514852,-0.1343890742459406,0.0571300352733762,0.4115572135455446,6.855048734,-3.062950817,0.01559251559251559,0.525043428036998,0.31264364847966464,69.1135206361316
3.657737861887153,2,Kiara,47.8515625,123.0,-15.819469615555557,0.280856136953,-0.11070161950326,0.066197679107837,0.3578609109469999,6.8449649995,-6.800591747,0.000996188496188496,0.5874006137545902,0.23970851062653603,68.98639921999114
3.6716972100087073,2,Kiara,71.33152173913044,124.0,-16.044481106666666,0.2171169065543564,-0.113135064809901,0.0601741536330099,0.2937359531257426,6.896990261,-4.105533133,0.024948024948024946,0.5777944420107274,0.19242573104242933,68.97189965142866
3.632032295188943,2,Kiara,63.4765625,125.0,-16.990018509,0.1692032601949505,-0.1141208908953356,0.0798808682381524,0.2841980426227722,6.450408937000001,-4.775168588,0.01693520443520443,0.5374276383767976,0.16507224296558795,68.10841369295036
3.5072079843901367,2,Kiara,62.16032608695652,126.0,-15.215596582222222,0.091018160112692,-0.10308591493653,0.073334030394439,0.2148938005403,5.9768991945,-2.056139929,0.01559251559251559,0.6131811107462879,0.11249938116925075,68.57001869015977
3.512651453354903,2,Kiara,72.265625,127.0,-13.999718675555556,0.0112149719238653,-0.0870449709315841,0.0691583715416336,0.2166095754565346,5.729283338,-3.766469552,0.025900900900900897,0.6650892685622852,0.07587466931155927,69.10608659525792
3.553518589248808,2,Kiara,82.54076086956522,128.0,-13.587543592,-0.07024171431907,-0.06639240600664,0.0710276254166999,0.2118600824097,5.2421255355,-0.461535340595,0.03638253638253638,0.6826858127282032,0.08268841865724862,69.58138782964716
3.5283317663157296,2,Kiara,58.08423913043478,129.0,-14.588209074444446,-0.0983704139846019,-0.062661175634198,0.0766457890729039,0.1938358461598019,5.037071871,2.5321515395,0.01143451143451143,0.6399654857126819,0.09897697252546792,68.70009183744615
3.596135464041266,2,Kiara,76.171875,130.0,-14.67205435888889,-0.1311126037211,-0.058530894729191,0.06377687920142,0.2013942269437,4.7103402275,-1.77466417525,0.02988565488565488,0.6363859698474738,0.11354727718822645,69.1427229533886
4.046727221390708,2,Kiara,75.40760869565217,131.0,-13.945947081111113,-0.1468130148180198,-0.0396770228419752,0.0965973109622475,0.2334665579269306,4.7276704165000005,-3.6419977195,0.029106029106029097,0.6673848809713404,0.13268875013433193,69.65224915485132
4.065044365046534,2,Kiara,70.3125,132.0,-13.65576397888889,-0.14119718327047,0.04009359320468,0.1625776504600899,0.2841229984407,4.475021935499999,-14.3298114445,0.023908523908523903,0.67977335368155,0.1649611311955411,69.95513977191341
3.91496835695546,2,Kiara,72.35054347826087,133.0,-15.490385724,-0.115317188158,0.1042635896208514,0.0365526123714851,0.2872639561091089,3.495402314,4.046522488,0.025987525987525985,0.6014498357068165,0.11569937771025626,68.66274356991437
3.675810785558071,2,Kiara,75.1953125,134.0,-14.413008364444444,-0.2403590058642376,0.1477095438592548,0.0716614835079208,0.4535195286069307,2.1032862895,-30.189469965,0.028889466389466382,0.6474451397587752,0.22477872401046692,70.14536079697837
3.2789494939442223,2,Kiara,72.35054347826087,135.0,-12.229975527777777,-0.463876706929,0.18963593909406,0.14568696231874,0.701413788876,1.759500583,-88.911209395,0.025987525987525985,0.7406429948903462,0.41642058365791207,72.73883112769798
3.014882906585178,2,Kiara,66.40625,136.0,-14.190662454444444,-0.7211853379851485,0.5765139198158415,0.1557422619988901,1.2038871454326732,2.2618839125,-87.641996425,0.01992376992376992,0.6569375127369658,0.7605370679984181,74.36602209530633
2.788140561788049,2,Kiara,66.23641304347827,137.0,-13.883540115,-0.6307078307230001,0.5388084298,0.13926056241803,0.904894196757,2.6816772670000004,-33.196629345,0.01975051975051975,0.6700491539447626,0.681485190042393,73.88748176268669
2.732670565706848,2,Kiara,80.50271739130434,138.0,-14.063483237777778,-0.4514992444495049,0.3804878821254356,0.1312576427743663,0.7215789969138614,0.9799081907,-25.510035373,0.03430353430353429,0.6623670372093255,0.4853079731091588,72.51693891745586
2.492304951139117,2,Kiara,63.4765625,139.0,-16.00898730666667,-0.382783588372,0.0687946731649399,0.02347850042625,0.528590532675,1.0250334718,84.275537355,0.01693520443520443,0.5793097403493084,0.3066020363296614,69.74323726353308
3.065812871694094,2,Kiara,60.12228260869565,140.0,-15.819377126,-0.3943355359386138,-0.1233195279309802,-0.0058595758570772,0.4881587334366336,0.7648291005000001,50.401630255,0.013513513513513507,0.5874045623109542,0.32618504148295585,69.92860534986536
3.1532674593759373,2,Kiara,63.4765625,141.0,-14.36546949888889,-0.383224356605,-0.209452487700288,0.01451861307754,0.538893481903,1.5380177860000002,52.11961536,0.01693520443520443,0.6494746650278183,0.3459120977467563,70.89969685101195
3.308837936170085,2,Kiara,65.21739130434783,142.0,-14.216399072222222,-0.3525089706059406,-0.2478799855522772,-0.0123737098785148,0.5032975636643564,0.95007684415,61.12283452,0.01871101871101871,0.6558387672050879,0.34105144825000583,70.97269716668148
3.372916233756181,2,Kiara,60.546875,143.0,-14.140517924444444,-0.3066349974247525,-0.3430388858083168,-0.0033798643236039,0.5849330352980198,1.061283348,49.07810785,0.013946638946638943,0.6590782788143632,0.36513567023337057,71.10895748657211
3.2836844907380223,2,Kiara,85.59782608695652,144.0,-13.969463866000002,-0.254897381953,-0.33053309625,9.723919285399952e-05,0.46018900241,0.9826087589,57.55496075,0.03950103950103949,0.6663809043593433,0.32966596739286486,71.42391938147583
2.846166023379317,2,Kiara,205.8423913043478,145.0,-15.07933841777778,-0.1879709414521782,-0.2405483007865346,0.0108609136065541,0.3473321247594059,1.2780328375,75.787309955,0.16216216216216212,0.6189982328972204,0.23673253560250812,72.56508232282995
2.9006063633781616,2,Kiara,52.734375,146.0,-16.43909509777778,-0.1305778219441,-0.051267328497,0.04366670828575,0.2118919405095,0.211972081,16.30823133,0.005977130977130976,0.5609476145334913,0.10508629832382488,67.69160438053511
2.8818078677090684,2,Kiara,46.875,147.0,-16.344937590999997,-0.0684318506531287,0.1353564048959405,0.0473670724543415,0.2260357941613861,0.53955413785,54.089215890000006,0.0,0.5649673789313667,0.11502927731094119,67.69984276566393
2.8909917670984155,2,Kiara,57.6171875,148.0,-15.749253263333337,0.02642100974191,0.333313850754,0.11561324703157,0.396815994628,1.6971322846,131.892093145,0.010958073458073456,0.5903982843861808,0.2768432878002167,69.51868718419738
2.879936975197315,2,Kiara,69.29347826086956,149.0,-15.505502434444445,0.0182237148957524,0.3909397424762376,0.1546230875764356,0.4524706988108911,2.0671315235,-169.70463775000002,0.02286902286902286,0.6008044743698709,0.3324885521869354,70.32694256731439
2.8589602541208508,2,Kiara,104.4921875,150.0,-14.622347049999998,-0.2411205947094,0.508385015929,0.16134191744158,0.607720666554,2.0528347005,162.1414647,0.05877512127512126,0.6385080701177934,0.4691056323421861,72.59044432565344
2.840075788696013,2,Kiara,128.39673913043478,151.0,-14.032755451111113,-0.0844763730404356,0.4776527883960396,0.121269753197092,0.5386859161603961,1.515080486,161.91695620000002,0.08316008316008314,0.6636788653056204,0.39824197456483873,72.81328384338782
2.8293495717257384,2,Kiara,84.9609375,152.0,-14.418721812,-0.0456089362818693,0.3351846698267327,0.1081628372163168,0.396615315709901,0.45443830098,24.55478755,0.03885135135135134,0.6472012217339792,0.27797410383881777,70.76723451854532
2.863644477351603,2,Kiara,74.38858695652173,153.0,-15.219003897,0.067861856252017,0.151378685895,0.1019405447952,0.25384577506,0.6876141777,-39.348059600000006,0.028066528066528054,0.6130356459490053,0.14476686816448603,69.07589325803451
2.5970439288029388,2,Kiara,57.06521739130435,154.0,-12.973588514444444,0.1152307705817623,-0.0412162531532772,0.060894160090198,0.2534762320864356,2.052165195,-2.8640301499999907,0.010395010395010396,0.7088967315079155,0.09659440028060537,69.48741618824003
2.474192331558423,2,Kiara,52.734375,155.0,-12.955406847777777,-0.2486314744120999,-0.1094986382043,0.04991684387496,0.3972907208333,2.741727881,166.3709095,0.005977130977130976,0.7096729416993471,0.21244552726274013,70.33518213803671
2.444528006897821,2,Kiara,64.19836956521739,156.0,-12.116314529555556,-0.3307276644297029,-0.1854453779465346,0.0327431513740594,0.4431101214663366,3.7713342385,175.86667599999998,0.017671517671517666,0.7454954007124222,0.29909437638271485,71.69213017304114
2.4305463416384328,2,Kiara,55.6640625,157.0,-11.692696562,-0.434230675624,-0.12059368312539,0.03292865926734,0.4759608030559999,3.6699478005,172.72081055,0.008965696465696464,0.7635804635242379,0.3582813617443018,72.2085303855592
2.407575424777184,2,Kiara,64.19836956521739,158.0,-11.52000515377778,-0.3799051737970297,-0.0760075495673267,0.0412394972836316,0.483876471620792,3.752409576,-175.3866299,0.017671517671517666,0.7709529906688761,0.3066005043831091,72.05767027652173
2.4905313939541984,2,Kiara,98.6328125,159.0,-12.602161904444444,-0.339907495641,-0.07425961831913,0.03334271229845,0.473838570121,3.1054998085,-3.3546466499999923,0.05279799029799029,0.7247536452516624,0.2733024340290634,71.93942302121226
2.8623763116736085,2,Kiara,81.52173913043478,160.0,-13.24899951222222,-0.227454862350297,-0.0900719282928316,0.0591101340670277,0.3224892046326733,3.073856391,172.15766165,0.03534303534303533,0.6971389082441448,0.1920671913769028,70.60906513680567
2.6212193474262637,2,Kiara,47.89402173913044,161.0,-15.588055072,-0.1302367037240594,-0.0895734372405841,0.0480440526603904,0.2182670253868317,2.844913512,176.463696,0.0010395010395010417,0.5972801440774419,0.12026902673845936,68.150303963627
2.527502693092845,2,Kiara,63.4765625,162.0,-14.425420958888887,-0.1404368782238499,-0.057450361436806,0.03878121342696,0.2824709300992,2.6412466135,172.16022995,0.01693520443520443,0.6469152223157529,0.11313221850848366,69.006744504561
2.5209242333365425,2,Kiara,46.875,163.0,-12.613915254444445,0.0631884258709207,-0.0786523552022673,0.0195423615309405,0.2482377494492079,2.610174932,167.9967792,0.0,0.72425187221728,0.0684249764650871,69.23842227832806
2.5568337328005017,2,Kiara,95.703125,164.0,-12.722933824444445,-0.000371003640345,-0.05534316378682,0.075023992663489,0.1279107323426,2.617977481,171.8200653,0.049809424809424796,0.7195976605522713,0.06050616490065857,70.11540974202101
2.5993971063626677,2,Kiara,86.61684782608695,165.0,-15.176467096,-0.0004568129992495,-0.0635902504363267,0.0690790694015643,0.1465986634344554,2.425008685,174.64409235,0.04054054054054053,0.6148516234967419,0.06105745808285041,68.67748995743452
2.771365910722168,2,Kiara,65.4296875,166.0,-16.784619353333333,0.01166639098204,-0.0304737657068,0.0447120559530309,0.1343357393313,2.4351938985,173.53546795,0.018927581427581424,0.5461965219375225,0.029057867696637513,67.165372833375
2.6946424895471464,2,Kiara,46.875,167.0,-17.42782477777778,-0.0015585615822871,-0.0390496108124584,0.0755374522442574,0.1744310317484257,3.2247519975000003,176.41237934999998,0.0,0.5187368497968384,0.053713937857247075,66.65455370042004
2.67224008552584,2,Kiara,46.875,168.0,-14.521006998888888,-0.0627670760876326,-0.0080956944062039,0.0572831339062079,0.1956365333889109,3.060411737,174.4400794,0.0,0.6428344710971303,0.05397409956953705,68.14580644972186
2.664539017415817,2,Kiara,89.67391304347827,169.0,-13.463189611,-0.110014929807983,-0.004953673393741,0.0584435753353399,0.1935352272318,4.4504421050000005,174.9786247,0.043659043659043655,0.6879947224759687,0.08661454912667273,69.82203393590588
2.6775560223749286,2,Kiara,74.38858695652173,170.0,-17.060613272222223,-0.1172208190467227,0.0187018459867118,0.0799517816462772,0.261280076460198,5.311755212,175.5852564,0.028066528066528054,0.5344138126544697,0.10192896138136637,67.78972800423513
2.6692102218206104,2,Kiara,46.875,171.0,-18.698440011111117,-0.386928882379,0.0819270415090339,0.071949532519071,0.488499134512,4.641821354,175.3987289,0.0,0.4644918506125915,0.3168760766738127,68.1089108207416
2.484975852668033,2,Kiara,46.875,172.0,-15.497217267777778,-0.3414652444910891,0.0744777355886039,0.068257055090198,0.3779160719326732,6.147087649,175.97731355,0.0,0.601158184011692,0.2787636490200684,69.44400740030085
2.37369841649025,2,Kiara,121.09375,173.0,-15.000469333333331,-0.266629258643954,0.0247057783655,0.08311987203945,0.3066697750401,6.1459508675,175.2361492,0.0757103257103257,0.6223653052485631,0.21589320910711637,70.7097358500462
2.3550941801596843,2,Kiara,51.97010869565217,174.0,-17.473780096,-0.238424450944495,0.0440203925225548,0.0761018301292079,0.2725779995797029,6.670531449,176.19465305,0.005197505197505194,0.5167749291979988,0.19409095007666993,67.85797685493945
2.354102731772719,2,Kiara,46.875,175.0,-18.313494276666667,-0.261994571332,0.0359333635879599,0.09214485059279,0.2868240376729999,6.7560088490000005,176.4323801,0.0,0.48092592168549864,0.21561554167862612,67.49603539365499
2.3998566147681117,2,Kiara,98.84510869565216,176.0,-14.926417522222222,-0.3454981639219702,0.0613471427273663,0.0991103342571881,0.3773286896726733,2.3750751723,157.64149695,0.05301455301455299,0.6255267189699901,0.2858495704332634,70.85340825139704
2.3942000451182333,2,Kiara,67.2554347826087,177.0,-16.359412103333334,0.3077654285661683,-0.1267360401181188,0.0936598492879049,0.4188070543256436,0.51463903925,13.0747018395,0.02079002079002079,0.5643494342624252,0.2701861204082408,69.34948259021544
2.399960720322497,2,Kiara,46.875,178.0,-17.100335612222224,0.7975648247930001,-0.2682715916825,0.060827093393279,0.854320426542,0.24531025985,10.0623562165,0.0,0.5327179898401598,0.6835938647032711,71.8613667957081
2.4221243366421543,2,Kiara,91.71195652173913,179.0,-14.872554505,0.5924498685247525,-0.1883767666178218,0.0588422794862346,0.6256060754455445,0.2429681245,5.5608679,0.04573804573804572,0.6278262343926215,0.5015813394425896,72.46132644301309
2.4098954113931144,2,Kiara,82.03125,180.0,-14.55039704888889,0.444607888211,-0.1373582658215,0.053322905461728,0.469993505629,0.2414435242499999,16.3180149585,0.03586278586278586,0.641579753542633,0.37199854862266835,71.39220114874865
2.3366055343038616,2,Kiara,46.875,181.0,-16.373002312222223,0.3376465567574258,-0.1027834190795049,0.0510203896358217,0.3587759206336633,0.2425776874,18.8954435045,0.0,0.5637692422021132,0.27919263926437243,68.99877202054034
2.5815055467812686,2,Kiara,122.0703125,182.0,-14.488228213333334,0.260801468173,-0.0811891462822999,0.045545009367519,0.279769919662,0.3705438413,34.060300625,0.07670651420651418,0.6442338602663101,0.21302219963701108,70.9691142044221
2.8395816380542604,2,Kiara,46.875,183.0,-15.142907589,0.208026291760792,-0.0676423202277227,0.049083907598198,0.2281319694307921,0.29843951295,27.511548137,0.0,0.6162843431604775,0.16923983889160107,68.74933082905854
2.3216857707520884,2,Kiara,46.875,184.0,-14.815502753333334,0.1515831827604,-0.05162791020465,0.047609900950684,0.1738506432418,0.26335062435,28.49372225,0.0,0.6302618829992414,0.12180926575347417,68.5376167220187
2.286162768226603,2,Kiara,101.90217391304348,185.0,-13.600326571111111,0.1229594639187128,-0.0426762001420792,0.0463876927781525,0.1419700501923762,0.3670348758,40.88649528,0.05613305613305613,0.6821400828539945,0.09782412351708093,70.0909351050457
2.296782015275722,2,Kiara,51.97010869565217,186.0,-15.252038734444444,0.0980284828495049,-0.0395919154610891,0.0456238437876039,0.1183327848376237,0.2970877946,33.845907000000004,0.005197505197505194,0.6116253254340178,0.07870406826463763,68.07308655527542
2.2881258154850044,2,Kiara,46.875,187.0,-15.69091164,0.0779414298521,-0.03567266255437,0.04567713890058,0.0989898156583,0.27576343335,29.022150590000003,0.0,0.5928890000860251,0.06374349946486506,67.62461599675122
2.289753006970892,2,Kiara,118.20652173913044,188.0,-13.808469655555555,0.0652090227818811,-0.0306976187612574,0.0463274027738811,0.0884818391996039,0.29873407595,33.383829325,0.07276507276507276,0.6732540557155702,0.05423713550104424,69.96824720789665
2.318328444670796,2,Kiara,71.2890625,189.0,-15.26130068777778,0.0512127136736,-0.025481769664499,0.04647579254468,0.078542649151,0.38718788355,30.640181725,0.024904712404712398,0.6112299148975856,0.0442936223069227,68.18720220532066
2.320670528273865,2,Kiara,46.875,190.0,-16.191176075555557,0.0416916625426277,-0.0207195406398316,0.0477360607079603,0.0714815675483168,0.3762418390499999,39.7829814,0.0,0.5715317526780681,0.03846287610636017,67.1660840409877
2.3196110355667705,2,Kiara,57.6171875,191.0,-14.812295574444445,0.031553969364331,-0.022464979148028,0.044904107756183,0.0651551898062,0.34684696135,38.295015165,0.010958073458073456,0.6303988036119079,0.03233679934287566,68.04264150724737
2.3636375439033586,2,Kiara,88.65489130434783,192.0,-15.45857427,0.0279095668340154,-0.0220224739667663,0.0467103027702871,0.0672816011053465,0.33111277985,23.629004677,0.042619542619542615,0.6028079276381975,0.03183777860609924,68.34078821289802
2.3257344944030964,2,Kiara,46.875,193.0,-16.301101306666666,0.023903190642192,-0.023259799942853,0.044171182661771,0.0601809644739,0.25978904825,27.695790865,0.0,0.5668388339127963,0.029054501342557146,67.03450201769401
2.3981232527356444,2,Kiara,46.875,194.0,-14.63955556222222,0.017266924069294,-0.0208703727519485,0.0457456221852356,0.0580373439698019,0.21880007805,36.192883235,0.0,0.6377734057544459,0.027240355926797584,67.87120371646773
2.3843580970402014,2,Kiara,96.8070652173913,195.0,-14.540133211111112,0.0160971060804903,-0.0211566142203534,0.0444162663905099,0.0569028460438613,0.3126225017,32.5044728,0.05093555093555092,0.6420179364459043,0.026078273398391336,68.931552443249
2.370533139779271,2,Kiara,51.7578125,196.0,-16.87869245222222,0.0148282406869263,-0.021434457090528,0.0440798608483719,0.0557563574228,0.33982473,39.301036345,0.00498094248094248,0.5421803610741743,0.02561724143198888,66.81072111396486
2.3214514949379685,2,Kiara,46.875,197.0,-16.906568294444444,0.0135913299362237,-0.0191855265082881,0.0455487215403792,0.0554825188169307,0.31265527015,25.9446741645,0.0,0.5409902879513788,0.025658954773260214,66.69715509360263
2.265100867500952,2,Kiara,46.875,198.0,-15.188737534,0.012831428966729,-0.018195774972091,0.04504991392493,0.0567498383391799,0.2533428601,26.46297076,0.0,0.6143277749847466,0.024822464329894368,67.57051301445611
2.230144811827992,2,Kiara,101.90217391304348,199.0,-14.384913633333332,0.0067149348570891,-0.0168091124121831,0.0457107125709603,0.0748049957386138,0.39414462035,30.144147590000003,0.05613305613305613,0.6486445576676931,0.023919467466907526,69.0977515544087
2.317605054010658,2,Kiara,46.875,200.0,-17.34985007888889,0.0125198092826629,-0.017565091367907,0.047028067910297,0.0733719954977,0.3237381293,23.13700424,0.0,0.5220657391149081,0.026057363103719366,66.47324777420866
2.436705172000828,2,Kiara,46.875,201.0,-17.544014936666667,-0.0162547167650892,-0.0020570099412465,0.0552171794599247,0.0849000140631584,0.3159521198,32.244767115,0.0,0.5137764692592853,0.030921067545241654,66.41268617147335
2.6003081902556757,2,Kiara,86.61684782608695,202.0,-14.060960626,0.005760219681663,-0.02650119370399,0.03586499647571,0.1837484486705999,0.3429322956,37.312565575,0.04054054054054053,0.6624747323401865,0.020432447301208002,68.92396717730271
3.427136010104903,2,Kiara,71.2890625,203.0,-15.888268281111111,0.0118487912851584,-0.0196993795298118,0.0460348798921782,0.0738940910542574,0.3329551378499999,35.503148925,0.024904712404712398,0.5844634668835048,0.025822038589308,67.71823215941077
4.107394268896143,2,Kiara,46.875,204.0,-19.558224688888888,-0.0028666687542653,-0.0151867488779811,0.0449871862102901,0.0581983414428712,0.31813333545,28.153339535,0.0,0.42778599511743093,0.022594148158615674,65.3141851266781
4.3343152799623095,2,Kiara,46.875,205.0,-16.036163234444444,-0.00701442076129,-0.0163464205289125,0.046137577897109,0.059806527158,0.2514740152,37.313024375,0.0,0.5781495479153885,0.02415503579492905,67.13103486134409
4.337977266700773,2,Kiara,108.0163043478261,206.0,-14.474825174,-0.0088764261479039,-0.0200297312942108,0.0441476591976336,0.0773009476420792,0.2954358241499999,24.7738227545,0.06237006237006236,0.6448060616996236,0.024019753656622303,69.1772320170497
4.302943409208142,2,Kiara,46.875,207.0,-18.315296544444447,-0.004686126000732,-0.01952085782708,0.04368418561225,0.0747749835961,0.4469558624499999,20.6098286,0.0,0.480848979420389,0.023016306473991492,65.9543182048366
4.320369598297826,2,Kiara,46.875,208.0,-19.275922517777776,0.0010883524530093,-0.018742544924497,0.0417736664861415,0.0609483756520792,5.4445761820000005,-0.54698126365,0.0,0.4398380157763207,0.021125088083125833,65.44705689398086
4.262341357312232,2,Kiara,62.16032608695652,209.0,-14.356608637,0.42566224475009,-0.13822297400473,0.03760683524579,0.4865536021345999,6.1804844895,-0.99631782269,0.01559251559251559,0.6498529522018777,0.3560003634415816,70.9580886458055
4.234803383916668,2,Kiara,72.265625,210.0,-15.694713805555557,0.8597499534465347,-0.2427246112928713,0.036390806596653,0.9030576307297028,6.452279772,-1.353201823,0.025900900900900897,0.5927266783523886,0.7254631015626274,73.4344429707477
4.401482419642604,2,Kiara,72.35054347826087,211.0,-15.69440025,0.785558265467,-0.1943336871676,0.03286028192746,0.8270765885500001,5.2973382645,-2.311419367,0.025987525987525985,0.5927400646399201,0.6555594161933386,72.87710662497626
4.589949989022064,2,Kiara,46.875,212.0,-17.792219083333336,0.6625179875801981,-0.1464930494629901,0.0441971347515148,0.7181806288821783,5.730100502499999,-0.151904032,0.0,0.5031801586057926,0.5476650159190497,70.41948203062191
4.729504603664855,2,Kiara,46.875,213.0,-16.25303786,0.536217908614,-0.08711793497977,0.050336328974219,0.557708533917,6.064872442,-1.250255025,0.0,0.5688907545547248,0.436087633635226,70.31539012373851
4.090203674889218,2,Kiara,86.9140625,214.0,-16.048419324444446,0.5636457565722772,-0.110955056370891,0.0505337739294158,0.5801640260267327,6.042735736,0.07276687095,0.04084372834372833,0.5776263119470081,0.46191432713815644,71.44370492734392
3.920421003634736,2,Kiara,57.06521739130435,215.0,-17.50508925,0.5241936981207921,-0.0900308588431683,0.0572608797499257,0.5400741936683169,5.9174674385,-1.49378070245,0.010395010395010396,0.5154382814161727,0.4272588153890381,69.81123010800658
4.059859961717083,2,Kiara,46.875,216.0,-18.322620416666663,0.452319379674,-0.077209445059021,0.06654817290815,0.487437594333,6.270320691,-0.6056313236925001,0.0,0.48053630928052504,0.36807532854129915,68.7110383396967
4.033005327721346,2,Kiara,47.89402173913044,217.0,-16.792737109999997,0.4059316386792079,-0.0657958968908118,0.0555250035222277,0.4774453692148515,6.1079452715,-3.104597547,0.0010395010395010417,0.5458499593494085,0.32763882623996854,69.19210014290267
4.0706584491931,2,Kiara,67.2554347826087,218.0,-15.702667634444444,0.373783925708,-0.05678881038099,0.07828145311377,0.4537122548789999,5.523859380999999,0.00722106405,0.02079002079002079,0.5923871141552418,0.3036694210099959,69.95380115374329
4.042496539211431,2,Kiara,56.640625,219.0,-16.058339196666665,0.3138014414465346,-0.0312524182129594,0.0657061348914178,0.3652796006069307,5.469417429,-0.4610309654999999,0.00996188496188496,0.5772028135924429,0.25055864894413044,69.13014065390006
3.8793485509864394,2,Kiara,64.19836956521739,220.0,-15.872533516666667,0.2355109417499999,-0.035695586563126,0.082044370276617,0.278973808703,4.6245295550000005,1.86257598595,0.017671517671517666,0.585135214130084,0.19227852274109572,68.91328110492013
2.833589574626545,2,Kiara,58.59375,221.0,-15.246977538,0.1535000058797376,-0.013292530341396,0.067145105716197,0.2182949218288118,4.4960205515,-2.648593614,0.011954261954261951,0.6118413976089752,0.12264618066000162,68.56235145567295
1.7612061892063229,2,Kiara,68.27445652173913,222.0,-15.206858052222223,0.013868892583218,0.03660081740713,0.077954763334268,0.1961713975671,4.793841571,-5.3614799144,0.02182952182952182,0.6135541753375866,0.05552464912978172,68.24343773367973
1.661789471612292,2,Kiara,63.4765625,223.0,-14.60993511888889,0.0053460904554455,0.0151410580964356,0.0537994959765445,0.2851370333446534,3.5874817865,-2.7109893445,0.01693520443520443,0.6390379592418445,0.029715380787353474,68.24488264590505
1.7191503728666289,2,Kiara,67.2554347826087,224.0,-13.554578679,-0.0411161677107425,0.0295451470269465,0.0994839539801514,0.3794001771769307,3.537674089,-2.522224708,0.02079002079002079,0.6840931480346614,0.07578184740644149,69.23117297146788
1.894266730085824,2,Kiara,72.35054347826087,225.0,-12.434123275555557,-0.079529829086643,-0.01346050970335,0.0488168773643599,0.3946373371606,3.579994039,-22.82732408,0.025987525987525985,0.7319275363304641,0.06138141253380623,69.79393225598653
1.9301270131891224,2,Kiara,64.453125,226.0,-10.944638838,-0.1956932196768387,0.0585299209341089,0.1025029872016831,0.6664272518554456,3.325020834,35.80033998,0.01793139293139293,0.7955164812608554,0.17285062751776578,71.28763065390025
1.9915737896817132,2,Kiara,70.3125,227.0,-12.492273158555555,-0.1881397091553009,0.0917336977767904,0.0138013936129099,0.6689451792159999,2.565558125,-13.392357730500002,0.023908523908523903,0.7294450063928812,0.15726709319562404,70.48964730045005
2.0881652963503083,2,Kiara,64.453125,228.0,-13.011742304444445,-0.2266007688604851,0.0436309896718415,0.0739514210496831,0.3970535139220791,1.6952941355000002,-6.930448821,0.01793139293139293,0.7072678730989095,0.18429827563387308,70.32022854088575
2.018526545744519,2,Kiara,58.08423913043478,229.0,-12.114153797499998,-0.2739821767253,0.0632883984235,0.0483166129745,0.5041481001870001,0.48114388115,132.45377580000002,0.01143451143451143,0.7455876465044733,0.21999659130996507,70.93571471722363
2.120346703305846,2,Kiara,79.1015625,230.0,-11.789437833444444,-0.602193112920792,0.1669490254015049,0.1269709621478316,0.7761616189881188,0.8463260837,-20.71065,0.032874220374220366,0.7594503932614882,0.5125576446982323,73.87135028420812
2.799737424078376,2,Kiara,74.38858695652173,231.0,-14.886035135555554,-0.584414495798,0.245178794075846,0.0580176349108661,0.671021457125,1.23752738505,65.33274206,0.028066528066528054,0.627250720441344,0.5115076876870692,72.18040070812324
2.973028091134033,2,Kiara,53.7109375,232.0,-14.976391237777776,-0.4023479274227723,0.2904697858420792,-0.003055042816099,0.582601987260396,1.042657186,68.489467465,0.006973319473319472,0.6233932452885569,0.3951342125689369,70.78125903348057
3.0118203603842764,2,Kiara,72.35054347826087,233.0,-14.947509254,-0.2628036674356435,0.3009036746881188,0.0468975120880099,0.4512851447762376,0.4323586856,39.422677535,0.025987525987525985,0.6246262725224228,0.31708815909437904,70.55197106277463
3.1344254424099938,2,Kiara,66.23641304347827,234.0,-14.469476194444448,-0.1747996347344,0.2437164302872499,0.02348020781412,0.369889986703,0.1449695772699999,-157.92810300000002,0.01975051975051975,0.6450344198870712,0.23288366923574688,69.99849278754122
3.127032762460111,2,Kiara,84.9609375,235.0,-14.17852408,-0.1306008477629604,0.1794164137527821,-0.0011711220318217,0.3055297438971287,1.0155055039,163.18717055,0.03885135135135134,0.6574557232027017,0.16735732420007543,70.00535429906004
3.120934024411236,2,Kiara,67.2554347826087,236.0,-15.136247734,-0.1564563761737,0.1301047246387983,-0.015072601678603,0.3125425794522,1.565860591,158.4286928,0.02079002079002079,0.6165686651326725,0.15251360202488276,69.03473321359155
3.0986954471616173,2,Kiara,55.6640625,237.0,-15.139333755555556,-0.2606434184960396,-0.0134101606911811,-0.0147664194672574,0.3968701041445544,1.5842678225,-176.61414480000002,0.008965696465696464,0.616436916958739,0.2001425261030571,69.17769714164325
2.6592043206009945,2,Kiara,84.5788043478261,238.0,-14.35576954111111,-0.312749903008,-0.16035658997729,-0.01301045243479,0.4041176161199999,1.466318719,-3.774492649999999,0.03846153846153846,0.6498887748133294,0.275117225535614,70.76883387127563
2.5826620818762795,2,Kiara,74.21875,239.0,-14.399612765555556,-0.2797570908267326,-0.2168737930043564,-0.0176765497514257,0.4370994782663366,1.3963761635,-8.873470049999995,0.027893277893277887,0.648017023545257,0.2773686610702725,70.55301912897082
2.467672557776987,2,Kiara,91.71195652173913,240.0,-15.549466684,-0.260467277509,-0.17650632624637,-0.02837560785195,0.365963802342,1.8149715725,-1.0796380000000028,0.04573804573804572,0.5989275563078855,0.24540218977048758,70.06510910861944
2.451267194324477,2,Kiara,77.44565217391305,241.0,-14.993828203333331,-0.2348927757553465,-0.1377543118508316,-0.0394457973103168,0.4385009695138614,1.532429908,168.65214085,0.03118503118503118,0.6226488278146254,0.21155342568167637,69.78791396292954
2.562563446607949,2,Kiara,69.3359375,242.0,-12.615875298888888,-0.2393667576140792,-0.0906719249875247,0.0808293329267425,0.5268780857569307,1.7027933395,-15.503512799999996,0.022912335412335408,0.7241681941639239,0.20596955458117186,70.79602147486317
2.506596367775294,2,Kiara,66.23641304347827,243.0,-13.074866219444443,-0.214246587282,-0.12228961102017,0.0596170822762599,0.3316459672039999,1.6465499175,-174.25593650000002,0.01975051975051975,0.7045729922035354,0.19382129034939005,70.40045662424794
2.483856333403246,2,Kiara,90.8203125,244.0,-14.247403742,-0.1802012309446534,-0.0760439296695742,0.0044159272567623,0.2875991487435643,1.380902785,-8.982361799999993,0.04482848232848232,0.6545151184381901,0.14553696729677215,69.9150468062021
2.4805904195712767,2,Kiara,79.4836956521739,245.0,-13.727379032222222,-0.1518367337444,-0.043210363800851,0.04758247166494,0.201247540018,1.3641792725,167.25581920000002,0.03326403326403325,0.6767159698192025,0.11999834718409841,69.74585908058388
2.407140444777001,2,Kiara,83.0078125,246.0,-14.345963478888889,-0.1286220790614851,-0.0559561691005049,0.026169213654997,0.1867147404741584,1.5008908335,169.18945624999998,0.03685897435897435,0.6503074144009012,0.10157103133269954,69.35343671065189
2.310273349011397,2,Kiara,90.6929347826087,247.0,-14.683609186666663,-0.1160400400507,-0.08778995839618,0.02415771299462,0.2159374837028,1.719234885,161.02272,0.044698544698544694,0.6358926721071853,0.10556649149427903,69.36921489121134
2.318626067817133,2,Kiara,73.2421875,248.0,-14.624211030999998,-0.1087849690223762,-0.1108270833984257,0.0143985196000693,0.2472675840599009,1.7869770425,-14.302118750000004,0.02689708939708939,0.6384284931969665,0.11259321327763483,69.09982941252646
2.107529585420803,2,Kiara,61.141304347826086,249.0,-14.687979174444443,-0.1297499572563,-0.15257581851284,0.01005042230254,0.2734420970661,1.93045392,147.01309225,0.014553014553014549,0.6357061089547673,0.1496043906061561,69.11636872336675
1.972357426674288,2,Kiara,59.10326086956522,250.0,-12.33972848222222,-0.1487252023225742,-0.1868282444525841,0.0175102746175742,0.3006841956247524,1.751844863,154.82552315,0.012474012474012473,0.7359574309461072,0.18190302002323108,70.53619358101939
2.031829510103992,2,Kiara,82.03125,251.0,-14.457780036666666,-0.1508828082608911,-0.2008930139553465,0.0237025802015049,0.2976597456356435,1.7049793875,145.23718985,0.03586278586278586,0.6455337512758901,0.192631817933049,70.0047152760308
2.141022877147924,2,Kiara,63.17934782608695,252.0,-16.262964558,-0.1298424488773999,-0.1632306046482,0.0133251437361399,0.242998832647,1.595832554,153.6657919,0.016632016632016626,0.5684669647946259,0.1566301482400202,68.407285096096
2.9768344987289246,2,Kiara,69.3359375,253.0,-15.51250871,-0.1135337139327524,-0.1283336789035148,0.0242094585364326,0.2221312250378218,1.7347694115,146.0608102,0.022912335412335408,0.6005053630403155,0.12677949694246327,68.6785470402702
2.977925130223986,2,Kiara,66.23641304347827,254.0,-14.431095983333332,-0.09210711376174,-0.09994319732522,0.039578335094624,0.1969349549313999,1.6463322945,161.1248566,0.01975051975051975,0.6466729446472003,0.10063409844133507,68.96015851830748
2.6428416399282857,2,Kiara,78.125,255.0,-14.030905337777776,-0.0933975994981188,-0.0839387664289277,0.0284831653018613,0.1892263341361386,1.830916729,154.6635043,0.03187803187803187,0.663757850189183,0.0900107347430388,69.32274071777515
2.55819279668895,2,Kiara,114.1304347826087,256.0,-15.618573097,-0.09538485637376,-0.053666617952586,0.050841575183406,0.188249211987,1.7418247815,161.17911064999998,0.0686070686070686,0.595977271108662,0.08329734283624361,69.19024736813526
2.541077167601603,2,Kiara,110.05434782608695,257.0,-16.088993277777778,-0.0871896685342277,-0.0448157252957821,0.055679294756099,0.1817455902223762,1.502374547,160.13490185,0.06444906444906442,0.575894132127556,0.07670758457047695,68.81337155107578
2.551438483445948,2,Kiara,109.375,258.0,-13.826374086666668,-0.08997444161969,-0.036457464144819,0.06825491083893,0.2144500488084,1.720827509,144.34253109999997,0.06375606375606374,0.6724896812412702,0.08163238097740805,69.99805649783578
2.5369950559555448,2,Kiara,87.63586956521739,259.0,-14.88901205,-0.0951537669372574,-0.026431535088292,0.0798615376902871,0.2440667446617822,1.374655369,146.8820682,0.04158004158004157,0.6271236302590651,0.08855190895554804,69.065499666354
2.608586236779812,2,Kiara,102.5390625,260.0,-14.283167798,-0.104045692185292,0.0010766634517831,0.1093784444046534,0.2171980826138614,1.4153238419999998,140.41041439999998,0.05678274428274427,0.6529882823530788,0.10844393701584695,69.8390657700186
2.6443831850286927,2,Kiara,84.5788043478261,261.0,-14.765415682222224,-0.0776070418368899,0.03912013558784,0.1098343853314099,0.2084267566287,0.63103042945,125.21501572,0.03846153846153846,0.6324001960465638,0.09938998362227412,69.15315299076772
2.5353892956371302,2,Kiara,86.9140625,262.0,-13.765250485555557,0.01025209398739,0.0886621428914366,0.1194866592605148,0.2221540056425742,1.7648916455,164.85319495,0.04084372834372833,0.6750991649035368,0.10693010592767595,69.77350539313841
2.480953915791924,2,Kiara,95.78804347826087,263.0,-14.844019698888893,-0.1111883179783768,0.17999762563014,0.1068920839597499,0.3146188442057,1.5798379595,158.1673129,0.04989604989604989,0.6290444399466026,0.17991181673046197,69.98574881112393
2.5009961473577937,2,Kiara,83.984375,264.0,-13.914635831111111,-0.1546279842573267,0.2166682054883168,0.158527088203693,0.358437834880198,1.889412429,173.07337305,0.03785516285516285,0.6687216182354231,0.24033721002223477,70.70446035610621
2.891693616894216,2,Kiara,99.8641304347826,265.0,-13.524843917999998,-0.1328737097925,0.2582567555344,0.15975762605417,0.384716080608,2.4396131775,168.5721723,0.05405405405405403,0.6853625819623166,0.2583193208875434,71.37198663172923
3.1048692475317017,2,Kiara,69.29347826086956,266.0,-12.108799611111111,-0.2092846006346534,0.2879970750550495,0.1368594779961485,0.4166101561851486,1.900568308,152.8605789,0.02286902286902286,0.745816226981614,0.2997808331122244,71.80542184605761
3.101879740006127,2,Kiara,63.4765625,267.0,-12.849824723333334,-0.13258101023738,0.2450982852224,0.12597400446217,0.339588406277,1.7491393095,157.73163705000002,0.01693520443520443,0.7141804449183466,0.23701210201743128,70.8049662438637
3.133473608114799,2,Kiara,68.27445652173913,268.0,-14.490356875555555,-0.0902033285433465,0.1688444408863069,0.1065824448236039,0.2760361747544554,3.267514341,157.88806334999998,0.02182952182952182,0.6441429835968994,0.1650166000359394,69.48643904004075
3.1375069280397225,2,Kiara,66.40625,269.0,-14.279410974,-0.2461246687778217,0.1762870143250494,0.0679652269215435,0.3828431170762376,3.495573983,162.83731039999998,0.01992376992376992,0.6531486683688208,0.24072280051567277,70.16204182302663
2.9309411142953774,2,Kiara,76.42663043478261,270.0,-14.807544824444442,-0.380472505985,0.10275335601287,0.05311045273023,0.437763823652,3.28014439,166.118789,0.03014553014553014,0.6306016222332451,0.3132789389655629,70.67636158143405
2.063017003095091,2,Kiara,58.59375,271.0,-14.005649968,-0.3123112993417821,0.0024465662117108,0.057950677517895,0.3452717601079208,3.503242454,169.5952018,0.011954261954261951,0.6648360503217277,0.24684342470302256,70.19186524057015
1.9947405748806508,2,Kiara,60.12228260869565,272.0,-14.254822643333334,-0.289648287791,-0.04972104108785,0.047481285594768,0.328083421605,4.508893101666666,175.12738720000002,0.013513513513513507,0.6541983913234687,0.2302741187440592,69.96284391610436
1.9073692166864389,2,Kiara,61.141304347826086,273.0,-15.203638315555557,-0.4921226396861386,-0.0174011256285169,0.0436889190773861,0.5028401141227723,3.650241359,174.2756715,0.014553014553014549,0.613691632065851,0.39356712885453093,70.80389690668675
1.8626202475754103,2,Kiara,64.453125,274.0,-15.212463333333334,-0.221987106144,-0.0809193586758574,0.04189053467216,0.259765146903,3.652547813,173.83097375,0.01793139293139293,0.6133148751455828,0.1823367809414342,69.17710060790633
1.822013802588992,2,Kiara,64.19836956521739,275.0,-16.411995623333333,-0.1666818807448515,-0.0763836803980297,0.0366253552048613,0.1986242093089109,4.0032763605,174.62821250000002,0.017671517671517666,0.5621045430281042,0.13834115757725607,68.20541413038565
2.351733544326376,2,Kiara,72.265625,276.0,-15.589028138,-0.223219065517,-0.035726781460453,0.04954676189909,0.249457364616,4.004013349,174.27602654999998,0.025900900900900897,0.5972386020252207,0.17525071559951358,69.08688696711678
3.084491026586748,2,Kiara,65.21739130434783,277.0,-16.045198524444444,-0.1897239101065049,-0.0337232272121712,0.0533530523784178,0.2240614815618812,4.099389344,172.37054775,0.01871101871101871,0.5777638140710101,0.14911412231878202,68.50029912162276
3.1802540119958045,2,Kiara,60.546875,278.0,-17.253398621111113,-0.150557623460891,-0.0327219812658049,0.0553248550711386,0.2207660590374257,4.619481892,177.4352368,0.013946638946638943,0.5261834366768593,0.1190218213923751,67.5453085901941
3.1213095965514666,2,Kiara,74.38858695652173,279.0,-16.699376746666665,-0.300770476947,0.02130377327947,0.07033261951698,0.410266443286,5.530222408,175.9234365,0.028066528066528054,0.5498356921660785,0.24017320481872154,69.08074450587327
2.341833828120238,2,Kiara,55.6640625,280.0,-16.802065518,-0.4098156241782178,0.051212651587393,0.0653043443354158,0.4879497260316831,4.612469446,174.0191231,0.008965696465696464,0.5454517117359096,0.3302735580514246,69.36692293455624
2.12528791498567,2,Kiara,52.98913043478261,281.0,-17.119622734444444,-0.1637870052162,-0.018968217010894,0.066243626528519,0.191662170197,5.381905006,175.48702225,0.0062370062370062365,0.531894585632683,0.1306349772763807,67.55255497054337
2.102999515523265,2,Kiara,79.4836956521739,282.0,-16.383128722222224,-0.2224110403834653,0.002681883352198,0.0769211234671891,0.2656521662439604,6.740295902,175.57258955,0.03326403326403325,0.5633369263540272,0.17851065800036967,68.85340904553195
2.0444936802727023,2,Kiara,62.5,283.0,-16.712934434444445,-0.415743996192,0.0564708183290999,0.07570057398735,0.4311373149469999,5.3514779615000005,174.67242815,0.015939015939015935,0.5492568884943198,0.33708365231981263,69.60653219927066
1.898608205359675,2,Kiara,62.16032608695652,284.0,-16.91153037,-0.1572153797159217,-0.0202390746405643,0.077850251818792,0.1994415809827722,4.866639375,174.0296262,0.01559251559251559,0.5407784474371129,0.12972746855615824,67.83901142954494
1.8207011628365763,2,Kiara,56.640625,285.0,-18.518668604444443,-0.04652722611493,-0.0431416312429549,0.079470385012545,0.1148407160572,3.3836327195,174.0412698,0.00996188496188496,0.47216663645818696,0.06753421655924279,66.40551106920988
1.8196303592067224,2,Kiara,62.16032608695652,286.0,-16.28337819111111,0.1605043053649604,-0.0925603267035247,0.0755736528768316,0.2475551327460396,0.36039119755,34.309646155,0.01559251559251559,0.5675954676785755,0.1492416750832157,68.31692932465894
2.2151847842373864,2,Kiara,133.7890625,287.0,-17.291738045555554,0.701955958080198,-0.2308622910910891,0.0584473724340297,0.7510881096148515,0.41552223125,29.16974537,0.08866077616077614,0.52454665317769,0.5985572632380795,72.85623346725244
2.3356432500573248,2,Kiara,46.875,288.0,-19.156769754444444,0.577062890226,-0.169174254037,0.05627800639362,0.604832067278,0.4648110958,27.06211489,0.0,0.4449248755748304,0.48457822716531573,69.21572432422049
2.3363706905804187,2,Kiara,62.16032608695652,289.0,-16.520278975555556,0.4766032710762376,-0.1245041839559406,0.0534436957957623,0.4960817011663366,0.3846390469,34.454850555,0.01559251559251559,0.5574817192189228,0.39449986975139,70.1576299004885
2.162102170410279,2,Kiara,46.875,290.0,-16.802489334,0.395062113028,-0.0978266280509,0.05496330673149,0.4123936797399999,0.37513308245,19.92580522,0.0,0.5454336182187131,0.32409144477610735,69.13793497683342
2.102077971711008,2,Kiara,46.875,291.0,-17.250956794444445,0.3339274439287129,-0.0747541959968316,0.0498080592058187,0.3471806006247525,0.37507246135,26.92153985,0.0,0.5262876829365188,0.27021351837516916,68.47716034223959
2.169900332325201,2,Kiara,46.875,292.0,-16.540940183333333,0.269773002445,-0.0574748334965,0.0513358870990999,0.281502740604,0.3621724381,29.38060786,0.0,0.5565996526659263,0.21604974242435615,68.40759377138596
2.180823323403937,2,Kiara,51.97010869565217,293.0,-16.795422224444444,0.2327888285138614,-0.0493659069409901,0.0470776758041485,0.2433871694257425,0.41160005035,25.527095945,0.005197505197505194,0.5457353266683045,0.1845098381521279,68.12885272918678
2.110213377813538,2,Kiara,46.875,294.0,-16.762360828,0.1964808194716999,-0.03612080778034,0.04929200456191,0.2082710771085,0.38448535865,23.075805705,0.0,0.5471467810378968,0.15394422068121205,67.79731513790446
2.088704424410436,2,Kiara,46.875,295.0,-17.245914801111113,0.166106352260396,-0.0324395766707326,0.0484682826300198,0.1778798096782178,0.3633068163999999,26.07118163,0.0,0.5265029352938639,0.12927037940052605,67.35219825873058
2.081664482725978,2,Kiara,51.7578125,296.0,-16.627403317777777,0.1410936205277227,-0.0276924089877683,0.0479375812324752,0.1530055285049505,0.34823719845,27.519689985,0.00498094248094248,0.5529083757676461,0.1089433851767792,67.60606644024483
2.062306855338434,2,Kiara,51.97010869565217,297.0,-15.715793021111113,0.1230212296236,-0.02445540936325,0.047700924557723,0.1356450442228,0.37474989555,25.673848625,0.005197505197505194,0.5918267662463327,0.09451827613621298,67.9620175079958
2.036045852024779,2,Kiara,51.97010869565217,298.0,-16.627887798,0.1042156493234653,-0.021987172126396,0.0489539488883168,0.1188905420541584,0.357572014,33.535451425,0.005197505197505194,0.5528876923785525,0.08042702208846139,67.38201858920043
2.0064850598237127,2,Kiara,51.7578125,299.0,-15.97169541,0.0905604996379,-0.019408439259809,0.04604481182122,0.1050484213807,0.40229010025,27.1811365,0.00498094248094248,0.5809018028802726,0.06897720739252967,67.62225814332236
2.177880725172474,2,Kiara,46.875,300.0,-15.24562005,0.0804243289417821,-0.0196118435275346,0.0462509952973297,0.0979344708817821,0.4036746544,17.54615938,0.0,0.6118993513730422,0.06183182064156722,67.83744678160905
2.2068728337770858,2,Kiara,51.7578125,301.0,-16.84674486888889,0.0702923819039,-0.019090091988599,0.046313807130457,0.089517157068,0.3862093649,27.223260415,0.00498094248094248,0.5435442646276591,0.05476637272631555,67.06028100696129
2.4746990058769254,2,Kiara,46.875,302.0,-17.324129647,0.0647249941782178,-0.0171413760992653,0.0472477371503405,0.0859551072146534,0.4058264647,31.289150985,0.0,0.5231637936401722,0.051139930401985875,66.68708496689796
2.361456514571998,2,Kiara,56.640625,303.0,-16.572345206666668,0.057111020469,-0.01539645556181,0.04428072440072,0.0775828506615,0.39063263235,27.912677825,0.00996188496188496,0.5552589120385463,0.04444799089297102,67.21792857084402
2.2121999407969417,2,Kiara,46.875,304.0,-16.368459438888888,0.0505851154492079,-0.0150404570420326,0.0447509529099009,0.0733980219661386,0.3908100358999999,32.297466915,0.0,0.5639631861701974,0.04054966241841755,67.09195553338971
2.2417288169135405,2,Kiara,47.89402173913044,305.0,-16.71974086666667,0.0473908839875699,-0.0129434623486665,0.045941497368057,0.0713494837934,0.39485642415,22.75681253,0.0010395010395010417,0.548966308859623,0.038945308081665554,66.91994819175882
2.3380679277516574,2,Kiara,51.7578125,306.0,-16.016274683333332,0.0437700745235643,-0.0131934229304655,0.0446192979284158,0.0664448199222772,0.416190533,37.67237519,0.00498094248094248,0.5789986282746471,0.036138765775169224,67.33671251511596
2.8487275799326226,2,Kiara,51.97010869565217,307.0,-16.890873601,0.0380135095287128,-0.0110295145982861,0.0448836268114851,0.0623876426798019,0.3723390924999999,23.63311326,0.005197505197505194,0.5416603244901801,0.032786354046554826,66.8661648302047
3.157544560983474,2,Kiara,51.7578125,308.0,-17.37083246111111,0.0334608392130299,-0.0108241375743913,0.0437595620689999,0.0591450517246,0.38363109485,24.09294028,0.00498094248094248,0.5211699610094134,0.029711468300013665,66.59135012813192
3.0968114950494874,2,Kiara,46.875,309.0,-16.804964095555555,0.0324427712910891,-0.0107154235936396,0.0431983608418564,0.0597330330469306,0.4570040865,26.111272635,0.0,0.545327965905534,0.02882876349136499,66.77456569879733
2.5574263560502786,2,Kiara,61.5234375,310.0,-16.275492628888887,0.032262418378467,-0.0106829287789507,0.04290481023785,0.0646942622621,0.3656079118499999,22.090273825,0.01494282744282744,0.5679321174409033,0.028544156472334627,67.34239520992607
2.3779664745901226,2,Kiara,46.875,311.0,-17.822655555,0.0259494213033663,-0.0121503418935306,0.0428209838602376,0.0589955577562376,0.40012305515,26.48586258,0.0,0.5018807673050931,0.025878239071132132,66.22959512023017
2.2660367314748706,2,Kiara,46.875,312.0,-17.626559384444445,0.0238562988963629,-0.0108004680454995,0.0435122657776,0.055256798816,0.37447607365,22.24557128,0.0,0.5102524886041636,0.025265105669399403,66.32515070860516
2.263496196897143,2,Kiara,57.06521739130435,313.0,-16.80644914666667,0.0227017720743584,-0.011213335716798,0.0425068089101881,0.0526190510847524,0.43603957395,23.549323055,0.010395010395010396,0.545264566227805,0.024178994256427503,66.94450695668529
2.304976741437774,2,Kiara,51.97010869565217,314.0,-16.88381952,0.0212137517431282,-0.010093899277067,0.0439452579439,0.0523670308538,0.4040885649,20.755184085,0.005197505197505194,0.5419614767257682,0.024472942233753008,66.80327136252934
2.3823738729152595,2,Kiara,51.7578125,315.0,-17.253895982,0.0209973210142069,-0.0102383429004405,0.0439347626548514,0.0518805374229702,0.3470677191,17.6366929685,0.00498094248094248,0.5261622033874227,0.02441357144221245,66.60887386180562
2.37862740180954,2,Kiara,46.875,316.0,-16.20356585111111,0.0203918367677524,-0.0123177054155534,0.0444592752672079,0.0534036970210891,0.4020959329,23.92268807,0.0,0.5710028094171402,0.024978753477294995,67.05186374082405
2.39032357734356,2,Kiara,61.5234375,317.0,-17.095654667777776,0.018727957477902,-0.0082426854194443,0.04304690927293,0.0503465665481,0.41050681085,21.544346235,0.01494282744282744,0.5329178283285624,0.022672727236349458,66.87525230669009
2.379556570042149,2,Kiara,51.97010869565217,318.0,-17.417389217777778,0.0161138791942029,-0.0094725385663151,0.0434635465455445,0.0500041724644554,0.3203608536,20.83337016,0.005197505197505194,0.5191823638508469,0.022382058794410905,66.51319494051555
2.368708822304035,2,Kiara,46.875,319.0,-17.498286663,0.014289623320303,-0.0108103776141746,0.0436243452069,0.05057754918082,0.3960918103,21.09520238,0.0,0.5157286968909642,0.02225616205207985,66.36679365910821
2.334090270097677,2,Kiara,62.16032608695652,320.0,-16.72790973111111,0.0127934780840584,-0.0102603814035089,0.0423543876289108,0.0480998708536633,0.37593289705,25.199120460000003,0.01559251559251559,0.5486175643825381,0.02080956172116545,67.06173757821009
2.3580681008870337,2,Kiara,57.06521739130435,321.0,-17.115634055555557,0.0132728060404125,-0.01132494867144,0.0428562549596,0.0487909380321,0.35090583645,25.122481285,0.010395010395010396,0.5320648699779339,0.021518038035736178,66.7648229519213
2.37482321610307,2,Kiara,46.875,322.0,-17.98759935777778,0.0139285981307504,-0.0135962526692732,0.0403683837279207,0.0470428734294059,0.3600569869,27.952155345,0.0,0.4948390002835735,0.0203092533679948,66.10054203034684
2.3257378539053506,2,Kiara,57.06521739130435,323.0,-16.69775905,0.009889563209579,-0.013201304094584,0.0423083416159,0.0489173927569,0.3937794348,31.225028465,0.010395010395010396,0.5499047547367621,0.020802532040777796,66.97317752106757
2.289744332755728,2,Kiara,56.640625,324.0,-17.41775705222222,0.0124105426283663,-0.0128100453158338,0.0406520721050495,0.0474280441687128,0.40140314475,28.60842777,0.00996188496188496,0.5191666602935344,0.01995780321303442,66.58890004846438
2.250105626899616,2,Kiara,51.97010869565217,325.0,-17.643518944444445,0.0091381737164787,-0.013439401109714,0.0426692225610891,0.0479159450571287,0.37906514635,26.36890844,0.005197505197505194,0.5095284524882485,0.021009606487576594,66.3863683857097
2.264447085746604,2,Kiara,56.640625,326.0,-16.626253752222222,0.0085962329283,-0.011144512367082,0.0417037804485999,0.0471214583458,0.35667136785,25.22586309,0.00996188496188496,0.552957452924119,0.01964403530456721,66.99187941676367
2.2645113159183565,2,Kiara,62.16032608695652,327.0,-16.532439779999997,0.0080191067367949,-0.0102020568742692,0.0403615986412079,0.0458970147949504,0.3439793944,24.77084033,0.01559251559251559,0.5569625511735043,0.018300225296922466,67.14180272830774
2.324810388037986,2,Kiara,46.875,328.0,-17.90025879888889,0.004781036543206,-0.01046917065403,0.04191819199937,0.04788055559538,0.3426006445,22.703533980000003,0.0,0.498567736112791,0.0191912864098785,66.13634312463252
2.5887258395742685,2,Kiara,57.06521739130435,329.0,-17.3337315,0.0049508114408811,-0.0130897202454732,0.0415262713699079,0.0467925572798019,0.3503265872,21.02395295,0.010395010395010396,0.5227538721356221,0.019483165939450504,66.63681200104328
2.8208981354537963,2,Kiara,62.16032608695652,330.0,-16.472033684444444,0.0026925532726648,-0.0137946006015976,0.0417428340022699,0.0486881034095,0.3695410610499999,24.416079655,0.01559251559251559,0.5595414031486521,0.019669533933230614,67.18370342109998
2.8564357513309124,2,Kiara,56.640625,331.0,-17.251321832,0.00189076737689,-0.0137961348153257,0.0399505162242871,0.0470119815894554,0.39576087735,29.5002844,0.00996188496188496,0.5262720987837528,0.018226761018577557,66.66031697279135
2.685654209129765,2,Kiara,106.99728260869566,332.0,-16.382141864444446,0.0041571770053659,-0.013280624498067,0.04167614650724,0.04736980554345,0.3831488736,28.544292145,0.06133056133056132,0.5633790572036709,0.01958038568427421,68.14380299852947
2.469103187948815,2,Kiara,61.5234375,333.0,-16.032270212222222,-0.0017312509195969,-0.0169720557859742,0.0411848113441584,0.0477900240270297,0.3733639534,20.49259477,0.01494282744282744,0.5783157484942331,0.020112034372096736,67.39954180576412
2.4090252943709607,2,Kiara,51.97010869565217,334.0,-16.947993302,-0.0004363473826633,-0.0137369346516574,0.0406352309662475,0.047413002332099,2.7927621864,1.53213826235,0.005197505197505194,0.5392217749963093,0.018715593280481592,66.72433615014967
2.228885819733345,2,Kiara,51.7578125,335.0,-17.19897041,0.300583115347514,-0.102184750833935,0.0343011469603,0.3595566365495,6.9342107945,-1.2307104589,0.00498094248094248,0.5285070813096856,0.24823280108999654,68.42756623405505
2.3617596082416017,2,Kiara,71.33152173913044,336.0,-16.827175547777777,1.0128049498237623,-0.3154767249980198,0.0134924385411604,1.0641911678386138,7.6654413145,-0.6170247185,0.024948024948024946,0.544379716446479,0.8639480756457583,73.94310170148431
2.7144853380315657,2,Kiara,47.89402173913044,337.0,-16.006377485555554,1.09498860913,-0.341637517181,0.0094598242898429,1.14951943843,7.6610219485,-1.7696512635,0.0010395010395010417,0.5794211586137282,0.9355183773224284,74.45799094273418
2.812225039991608,2,Kiara,50.78125,338.0,-14.437699658,1.0202478380871287,-0.3200377572782178,0.0151627217409415,1.0720679653643566,7.794807284,-2.1780444875,0.003984753984753984,0.6463910211210934,0.8709942933209864,74.80434167971609
2.826669308173116,2,Kiara,47.89402173913044,339.0,-13.007252256666668,0.955524080468,-0.289556554476,0.0163323608982599,1.006425022178,7.717399492,-2.4049550458,0.0010395010395010417,0.7074595618427977,0.8122039753085772,75.0079365653722
2.857552165968919,2,Kiara,48.828125,340.0,-12.818984912222223,0.8992270026,-0.2766689689126733,0.0161059818357178,0.9639736162970296,7.495695503,-0.6444763192899999,0.001992376992376992,0.7154970555528468,0.7643769820307371,74.7408280627276
2.5434915182796,2,Kiara,49.932065217391305,341.0,-12.781595965555557,0.8284987020529999,-0.2517091253058,0.0251233631214299,0.8773578266100001,7.736806962999999,-2.571227926,0.0031185031185031182,0.7170932613342874,0.7023464966104805,74.28626117126535
2.2982232672933245,2,Kiara,54.6875,342.0,-12.743429756666666,0.7708396689732673,-0.2361510498861386,0.0303501059998079,0.8239557084940594,7.358183546,1.313878175,0.007969507969507968,0.7187226499294583,0.6529581673264785,74.00772729715548
2.3249367131183902,2,Kiara,49.932065217391305,343.0,-12.958073591111113,0.708769997902,-0.22305910324,0.02429370753693,0.7536546142439999,6.7455180615,-0.0210504103999999,0.0031185031185031182,0.7095590933161808,0.600371876117795,73.3800541911066
2.306786175632504,2,Kiara,46.875,344.0,-11.904287598888889,0.5746342057049505,-0.1817433797994059,0.0322593087488514,0.6094813775821781,6.093391758,1.02485526885,0.0,0.7545472366886672,0.48422553621872083,72.92837113001377
2.229096920685831,2,Kiara,49.932065217391305,345.0,-14.036406836,0.4373833988217822,-0.1421554517363168,0.0394082651328019,0.484149817920792,5.7568464345,-1.17580425315,0.0031185031185031182,0.6635229806875843,0.3663547468421682,70.95548380535843
2.246406277860253,2,Kiara,58.08423913043478,346.0,-13.637740632222222,0.352064736254,-0.070793418118564,0.05682985491584,0.382932293341,5.27345324,0.7849020440500001,0.01143451143451143,0.6805428048887939,0.284978021812277,70.67502806185396
2.208207714626308,2,Kiara,61.5234375,347.0,-14.69288367,0.2934863837574257,0.0023821021063279,0.0758832137367128,0.3362014177316831,5.0978814805,3.3268322445,0.01494282744282744,0.6354967266410417,0.234800352740957,69.8032200904767
2.174500223600404,2,Kiara,73.3695652173913,348.0,-14.340286952,0.256399634806,0.08538566810503,0.077628085238113,0.331265348471,4.762895797,-10.13703943,0.027027027027027015,0.6505497562116863,0.21655436459953578,70.07957253187706
2.1787050284878045,2,Kiara,69.3359375,349.0,-12.31597204222222,0.2048080354663366,0.1442582899497623,0.0988822581068475,0.3060186963069307,4.964287037,-4.5590128555,0.022912335412335408,0.7369716388940474,0.20671572632482973,70.95563218557392
2.134310068166104,2,Kiara,61.141304347826086,350.0,-13.443933611111111,0.12635924387799,0.099436141402338,0.07860493862482,0.3440889426627,4.495721831499999,-0.6203474431,0.014553014553014549,0.688816798011396,0.1317029011848566,69.6104850766759
2.12964175378305,2,Kiara,51.7578125,351.0,-13.473863096,0.0586684292096901,-0.0334401047413069,0.0654598629027772,0.3385671739910891,4.2302763185,9.599252976,0.00498094248094248,0.6875390509477758,0.06118722032422125,68.83958522358593
2.093260013378233,2,Kiara,68.27445652173913,352.0,-15.503519013333332,-0.036371276552818,-0.19982607477016,0.00061895116578,0.2913731872282,2.9587742875,15.633624748,0.02182952182952182,0.6008891504179238,0.15174008961025248,68.86118095848754
2.0881027084858883,2,Kiara,74.38858695652173,353.0,-13.161974091111112,-0.2664810922602604,-0.2822862326816832,0.0255014616230396,0.4521992001861386,1.388606963,127.67789378,0.028066528066528054,0.7008541902377319,0.30611237616207065,71.4204798534799
2.077807437623223,2,Kiara,66.40625,354.0,-14.800962398888888,-0.8221097329108912,-0.0183355005614554,0.0282595990363069,0.8600064584980198,1.8467492585,171.73755775,0.01992376992376992,0.630882638594079,0.6662652087478554,73.2991887315872
2.078334328299156,2,Kiara,62.16032608695652,355.0,-14.405730659,-0.859749703059,0.1641625733387,0.049641644671207,0.901381594904,0.8677525546,31.02367857,0.01559251559251559,0.647755838950427,0.7110091028259174,73.77299320186277
2.0762324755578008,2,Kiara,90.8203125,356.0,-14.981517435555556,-0.572993575049505,0.1853743603268317,0.0659499290486534,0.6481326222128713,0.7171182343,41.46371125,0.04482848232848232,0.6231743980821177,0.4861196338286315,72.26361949418411
2.061147882823734,2,Kiara,94.76902173913044,357.0,-15.561496744444444,-0.339072227643,0.08864224708965,0.0290434534371499,0.380810188141,0.8658919173999999,-15.831779174,0.048856548856548845,0.5984139699743711,0.2750876388785456,70.35879972785179
2.0510979234672466,2,Kiara,70.3125,358.0,-15.141231323333333,-0.2459453029980198,0.1013503041531752,0.0340635221353293,0.299106502560396,0.6230761787,38.162420721,0.023908523908523903,0.6163559061540066,0.20576852182183517,69.52058952659324
2.068607967179904,2,Kiara,64.19836956521739,359.0,-14.906789898888889,-0.2895818064079999,0.087487541865181,0.0516124545501578,0.338732604532,0.24844875135,-16.441945645,0.017671517671517666,0.6263646598224007,0.23789999577860696,69.77300623752802
2.296061251845339,2,Kiara,75.1953125,360.0,-15.906043489999998,-0.3004025963524752,0.1099821969243495,0.0532588658877534,0.3490693303762376,0.76674690925,63.59766056,0.028889466389466382,0.5837046091534995,0.2523683500362266,69.60119143792113
2.272904431900705,2,Kiara,62.16032608695652,361.0,-15.223545936666666,-0.2744277522859999,0.07769134918446,0.058113423996177,0.3496718038929999,0.05974019882,-157.2490236,0.01559251559251559,0.6128417375717488,0.22477555450962927,69.46415559878832
2.04141700039959,2,Kiara,68.27445652173913,362.0,-15.3310264,-0.2383116626435643,0.0544627004916099,0.0456352140151366,0.3180311042960396,0.2844667791999999,-39.38109374,0.02182952182952182,0.6082531906278057,0.18957565636507318,69.25223397504469
2.1150492255739297,2,Kiara,56.640625,363.0,-15.328495016666668,-0.2124926727821782,0.084026564400257,0.0372548108601326,0.3732143371059406,0.62109339655,90.962048375,0.00996188496188496,0.6083612602331822,0.17532870552712237,68.90220246625286
2.197969478647477,2,Kiara,67.2554347826087,364.0,-15.864974986000002,-0.21239568296868,0.05460276156791,0.0651869820344999,0.4648420241598,0.47407112435,20.9403626355,0.02079002079002079,0.5854579022886163,0.17305811029184356,68.82576012559856
2.253886201913195,2,Kiara,57.6171875,365.0,-14.501269487777778,-0.2005085582584158,0.0583551615565742,0.0290885721153663,0.3915136157485148,0.60052356425,51.09693733,0.010958073458073456,0.6436771032693517,0.1581614279388493,69.20857813190449
2.079389554438876,2,Kiara,59.10326086956522,366.0,-16.06037983222222,-0.185218564289,0.06337235420883,0.0497327033558,0.393828432059,0.63337671225,38.354956434,0.012474012474012473,0.577115694950117,0.15080052542786873,68.3812727923046
2.1501723893378224,2,Kiara,74.21875,367.0,-15.602138471111113,-0.184006584420495,0.0415552512722772,0.0546648375786237,0.4308613295742574,0.35194117175,15.2862170477,0.027893277893277887,0.5966788967814453,0.14616988153916113,68.88737137155618
2.1956412874483293,2,Kiara,55.02717391304348,368.0,-15.659723892,-0.1749373916705,0.04828907113394,0.0477254594772399,0.425445930677,0.67418316525,-60.721634025,0.008316008316008313,0.5942204648130615,0.13890391569980196,68.40819706967531
2.1818981866842924,2,Kiara,56.04619565217392,369.0,-15.45979208,-0.1695408147705603,0.0439576073216267,0.0419201131901287,0.3666142575686138,0.53345919205,62.62368709,0.009355509355509361,0.6027559369956146,0.1326294889649702,68.48121734277733
2.122950581870185,2,Kiara,70.3125,370.0,-16.074275838888887,-0.1562102447555,0.0254191225939,0.044360527198686,0.2492728030114,0.32161869695,-49.403662305,0.023908523908523903,0.576522447796673,0.11956965838472021,68.35299711880832
2.135706847872648,2,Kiara,72.35054347826087,371.0,-16.682449897777776,-0.1221098499139406,0.0467850284480891,0.0502870851070604,0.2887309155257425,0.7123289141,81.446108995,0.025987525987525985,0.5505583317819762,0.09942440649005511,67.92184575305467
2.195628547325947,2,Kiara,80.078125,372.0,-16.32983023222222,-0.1321849998835,0.02386715900334,0.0411952481044992,0.3282892079676,2.137261366,7.625963749999997,0.03387040887040886,0.5656123410277416,0.09975320754884064,68.26278193013181
2.19157828848565,2,Kiara,68.27445652173913,373.0,-15.934420502,-0.4529732954940594,0.110382321596622,0.0323097511148979,0.5888151515227722,3.313857451,-1.0642783500000093,0.02182952182952182,0.5824931401325015,0.37113446259058624,70.39558381890514
2.2666954211306267,2,Kiara,122.0703125,374.0,-15.035271265555556,-0.5797855448029703,0.1731611420537227,0.0671675740812079,0.6613334899277228,3.229385539,169.1062817,0.07670651420651418,0.6208795440712378,0.48858928162893833,72.89339906601664
2.638119463769064,2,Kiara,77.44565217391305,375.0,-14.97119426111111,-0.5751482391980001,0.16057419995459,0.0597382833638,0.716397704407,2.5744859235,171.44355854999998,0.03118503118503118,0.6236151141813957,0.4813783506473155,71.95810879905589
2.630924725585983,2,Kiara,91.796875,376.0,-14.88553142,-0.4147031995722772,0.1053793150702341,0.0593999591240792,0.5258356342950495,2.0815783355,-175.0959493,0.045824670824670816,0.6272722250236781,0.34177460408293364,71.17795694944103
2.264343873152099,2,Kiara,100.88315217391305,377.0,-13.124774506,-0.315483282266,0.065692218008566,0.05005748110304,0.474995625125,1.821392547,3.0738324499999976,0.05509355509355508,0.7024423118114933,0.2538703521859817,71.56214166109687
2.160703576390838,2,Kiara,78.46467391304348,378.0,-9.790275916,-0.3047116416772277,0.0641111259108118,0.0166365732323762,0.4476945902881188,2.468436052,0.2989567999999991,0.032224532224532226,0.8447984465005932,0.2420073477522396,72.71813078451568
2.141095795715496,2,Kiara,88.8671875,379.0,-10.291343498444444,-0.281954882496,0.0537372216232,0.0443937978554326,0.4107840189139999,2.090331785,-9.663230349999992,0.04283610533610532,0.8234069112128836,0.22425204351879074,72.53162138942703
2.171439267822019,2,Kiara,86.61684782608695,380.0,-10.112655333666666,-0.244197698240099,0.0639986422677019,0.0657077848474257,0.365595598160396,1.7257382175,-14.673901349999994,0.04054054054054053,0.8310354513864314,0.19968622589388768,72.38072603459909
2.154786767537305,2,Kiara,106.4453125,381.0,-10.4099824553,-0.21958212368853,0.06681302984962,0.03781497858315,0.59378673202,2.114260526,-166.51995019999998,0.060767498267498256,0.8183419867975148,0.17623879642621784,72.44536417832988
2.1752228106350784,2,Kiara,85.59782608695652,382.0,-10.244041693111113,-0.186573516794295,0.0324837824897544,0.0471084286902673,0.5911845146455446,1.9762879555,-8.531323749999999,0.03950103950103949,0.8254263159267626,0.14513203794999657,71.85619288474192
2.18037064553287,2,Kiara,102.5390625,383.0,-11.774506201666666,-0.1046239307933762,0.0025799189092871,0.0453488567616534,0.2193543050021782,1.5784150955,174.06660035,0.05678274428274427,0.7600878532354884,0.0778009898968387,70.87911704365546
2.059969780701746,2,Kiara,93.75,384.0,-12.966540179222225,-0.08538555627764,0.004944098579129,0.04656439540622,0.1583786989965999,1.641613154,167.63198575,0.047817047817047806,0.7091976384452395,0.06395511256510272,69.97835351820466
2.0153232653896023,2,Kiara,85.59782608695652,385.0,-14.325542968,-0.0824541062717722,0.0056198790928554,0.0447805016130594,0.1515032961317821,1.96503054,-2.9352104999999966,0.03950103950103949,0.6511792051424647,0.06114455535955867,69.09332769460684
1.941834918342797,2,Kiara,72.265625,386.0,-14.268582831111113,-0.1482840945182,0.0399429046112326,0.0484013157435899,0.187720922909,2.335410893,-4.399808100000001,0.025900900900900897,0.6536109425386603,0.11678993716831372,69.29566882582844
1.9049335754936405,2,Kiara,114.1304347826087,387.0,-14.688074122222222,-0.1674042448964901,0.0452983782138019,0.0366917124181752,0.2395138622250495,2.5311344515,5.6008791,0.0686070686070686,0.635702055452186,0.130279920636694,70.04280540266116
1.9348065966523191,2,Kiara,138.671875,388.0,-15.907414946666668,-0.1647029518167299,0.052318776277175,0.04727223594273,0.2414323013909999,1.644914172,175.1596401,0.09364171864171862,0.5836460590402842,0.1318560052043345,69.93143512295246
1.9800401993670331,2,Kiara,110.05434782608695,389.0,-15.21657162888889,-0.0022097916071504,0.0216945971387153,0.0565276562763663,0.1099931314673267,1.5234632554999998,6.490488550000009,0.06444906444906442,0.6131394841356111,0.03340476004042367,68.91389317893201
2.2834833056773216,2,Kiara,60.546875,390.0,-15.842104247,0.0151141563759723,0.0254045527966869,0.056773095987243,0.1323356114075,1.3837146035,-5.784141699999992,0.013946638946638943,0.5864342979636025,0.03624423918422346,67.6060982679698
2.4611836934343354,2,Kiara,61.141304347826086,391.0,-16.421049032222225,0.0213155123062042,-0.0253039053393287,0.0483817438389802,0.1238702673476237,1.2928238655,168.9942262,0.014553014553014549,0.5617180356536379,0.031764498466324655,67.28579270663454
2.840885586111006,2,Kiara,61.5234375,392.0,-16.236478026666667,0.012847867681936,-0.037739553884123,0.05051661032392,0.1481020626617,1.463408871,163.38172435,0.01494282744282744,0.5695977255732457,0.036530507808963796,67.42627331820721
2.1361384684099827,2,Kiara,62.16032608695652,393.0,-15.80951115222222,0.009295642924672,-0.0389366596872415,0.0443767658465504,0.1400355952276237,1.4155382200000002,-7.599150349999988,0.01559251559251559,0.5878257596376409,0.03272077277837257,67.62752560972898
2.021252643898444,2,Kiara,55.02717391304348,394.0,-14.762038935,-0.0098532494750891,-0.0167465124693523,0.0352989635434158,0.1474571043539604,1.715876563,171.51071895,0.008316008316008313,0.6325443558563235,0.016554100445967647,67.88928524016379
2.189977113645147,2,Kiara,50.78125,395.0,-15.81444164222222,-0.069107540863141,-0.019851943257279,0.040362820940628,0.1304784197238,2.2329458925,171.26162215,0.003984753984753984,0.5876152675712689,0.051562180786027985,67.54357573683853
2.4936559222349177,2,Kiara,50.95108695652174,396.0,-16.652800223333333,-0.1124153876274257,0.0056884348012584,0.0359846624671089,0.1689496466088118,2.18445662,174.37942455,0.00415800415800416,0.5518241332015237,0.08121588762031723,67.35477678254091
2.4778477294919505,2,Kiara,56.640625,397.0,-15.178393413333332,-0.1091024981172,0.006679454240117,0.0419381543869099,0.2132206594502,3.6159181855,176.4085323,0.00996188496188496,0.6147693853183903,0.08030636594326987,68.21892125060454
2.0871227131163077,2,Kiara,48.91304347826087,398.0,-16.261471602,-0.2767749337799999,0.0500668636304524,0.0498063224085841,0.4579427851766336,4.46327441,178.07795755,0.0020790020790020765,0.5685307019472096,0.22026645585750937,68.62608011180663
2.0721592952607915,2,Kiara,229.4921875,399.0,-16.84773278,-0.41993954226,0.10043202601432,0.06112251227204,0.545869330452,3.5535508845,175.3865931,0.18628724878724875,0.5435020888091969,0.3451795547263057,73.00920647926579
2.0788088368970987,2,Kiara,62.16032608695652,400.0,-16.130331657777777,-0.2456093112544554,0.0440675957634326,0.0436391309074356,0.2795007177960396,3.600634673,173.83975974999998,0.01559251559251559,0.5741293174688373,0.1934278703740006,68.74882508446836
2.07784476875693,2,Kiara,50.95108695652174,401.0,-16.129472145555557,-0.2191332409849999,0.03723562622228,0.04986375115335,0.24247563038,5.675287623,176.0542028,0.00415800415800416,0.5741660116926827,0.17223893821651598,68.3510637292044
2.087807630068352,2,Kiara,63.4765625,402.0,-16.808105457777778,-0.532035008620792,0.1363325787321782,0.0615483535223168,0.5555156355633664,6.231953881,175.99321425,0.01693520443520443,0.5451938551324915,0.4419718439403036,70.41680510181641
2.0797425374512515,2,Kiara,46.875,403.0,-15.554473174999998,-0.5213092192415841,0.1247515211746534,0.061087158729297,0.5427874235930693,6.2781461175,175.961479,0.0,0.5987138196131835,0.43104112817864193,70.63289486078733
2.0567457704282277,2,Kiara,46.875,404.0,-14.743870807777776,-0.451878951312,0.1066548419496,0.06905534788267,0.4721818315859999,5.824082133,174.92427855,0.0,0.6333199880229262,0.37284114469740337,70.58256901385434
2.036910302943194,2,Kiara,51.97010869565217,405.0,-17.057057828888887,-0.3382947213362376,0.0754099062326039,0.0697758896175148,0.3740791290326733,2.184119932,1.306268199999991,0.005197505197505194,0.5345656013436472,0.27665081562858734,68.73194384510256
2.0354318682311963,2,Kiara,159.1796875,406.0,-16.954403683333332,0.3370206266089,-0.124321461451649,0.0615730460803835,0.4035652813715,0.44079462495,16.04080201,0.11456167706167704,0.5389481035330096,0.2857068283257531,71.04426541023568
2.0310266069651965,2,Kiara,1027.1739130434785,407.0,-17.972901356,0.6007996208396039,-0.2023614987465346,0.0467507469756633,0.6379178623257427,0.2718421065499999,14.418993855,1.0,0.49546648614516986,0.510905249245282,90.0328398277043
2.008124013921805,2,Kiara,58.59375,408.0,-17.21421069888889,0.516203531164,-0.1721756766129999,0.041842558265037,0.546846738372,0.37380305715,24.78009694,0.011954261954261951,0.527856444172134,0.4362462019794568,70.0633321849865
2.020187835284051,2,Kiara,46.875,409.0,-15.34465887777778,0.4360434098524752,-0.147507440060792,0.0400520377812871,0.46404815900099,0.31981615525,11.707633057,0.0,0.6076711940276273,0.36674222619875085,70.22599213792154
1.9908291196899024,2,Kiara,62.16032608695652,410.0,-16.19669896222222,0.370715379286,-0.124907748605,0.036450676989596,0.394940549664,0.2768933055499999,1.45198246385,0.01559251559251559,0.5712959700627898,0.30931121604214606,69.64189168094096
2.053960040383324,2,Kiara,46.875,411.0,-17.601212343,0.3141008729821782,-0.1120824719139604,0.0366655620497603,0.3411744444396039,0.42342378105,12.584720135,0.0,0.5113346023758283,0.2616701291247509,68.22937626150795
2.027669501303584,2,Kiara,51.97010869565217,412.0,-16.394785793333334,0.271118429952,-0.0967673084585,0.03980196770978,0.295736803161,0.38524748775,20.466881926,0.005197505197505194,0.5628392636499103,0.2243895911480003,68.65313799693303
2.001029728891535,2,Kiara,53.7109375,413.0,-16.147583873333332,0.227591742920297,-0.0776599394216831,0.0315748313662673,0.2529238127574257,0.3348474535,14.171871303,0.006973319473319472,0.5733927873264413,0.18447919937001422,68.4960134323438
1.97890700577972,2,Kiara,55.02717391304348,414.0,-16.586449841111108,0.1983563040198019,-0.0715763963914851,0.036533658126098,0.2210321705366336,0.4099291566,34.71860657,0.008316008316008313,0.5546567581654768,0.1607957151630884,68.1085669856106
2.0077235136246547,2,Kiara,57.6171875,415.0,-16.974153591,0.169555982572,-0.0616895503915,0.0347969265278306,0.193709594835,0.34623768145,20.1118957425,0.010958073458073456,0.538104942128076,0.13566909894235812,67.76177356623725
2.719755367690721,2,Kiara,61.141304347826086,416.0,-14.241448864444443,0.1469107848930693,-0.0537569661642574,0.0375427486037287,0.1678179731514851,0.3618024603499999,22.97702671,0.014553014553014549,0.6547693435723371,0.11667580524348808,69.08169885587624
3.1218116076916096,2,Kiara,69.29347826086956,417.0,-15.20136502222222,0.1251760484592,-0.048667671033515,0.032955603236016,0.141814018191,0.39409827155,23.046688675,0.02286902286902286,0.6137886833145512,0.09791888077626962,68.60619570336523
3.133809094023069,2,Kiara,89.84375,418.0,-14.774859445,0.1085223393063366,-0.0405210496075148,0.0345103304632169,0.1232168810667326,0.3643755107499999,32.73881491,0.043832293832293825,0.631997023716548,0.08345812202412016,69.12827513743741
3.1030630796072973,2,Kiara,102.9211956521739,419.0,-14.926498462222222,0.0934437624087,-0.03392147847663,0.0372549381136,0.1085712042089999,0.3490153407499999,25.60904492,0.057172557172557155,0.6255232634862852,0.07124442198289686,69.21968568114974
2.4431892258955723,2,Kiara,76.171875,420.0,-16.402603468888888,0.0800565701922772,-0.0309259308235148,0.0341900362012138,0.1092663298940594,0.3713085807,22.816258485,0.02988565488565488,0.5625055120994734,0.059803064226403406,67.826203756718
1.7497947732781287,2,Kiara,59.10326086956522,421.0,-15.000397458888887,0.0694038079495,-0.02752419624521,0.03613669905069,0.0918660226275,0.33394502825,18.8752834294,0.012474012474012473,0.622368373706329,0.051969896754225024,68.13365990799
1.766749454145796,2,Kiara,67.3828125,422.0,-15.856610555555555,0.0609854005326732,-0.0237450535663089,0.0370476341719207,0.079602504430792,0.32356186485,21.74628212,0.020919958419958414,0.5858149958530035,0.045539916935644756,67.81249845412037
1.770138614666492,2,Kiara,86.61684782608695,423.0,-16.247364358888888,0.0540670600034653,-0.0215015811288772,0.0358328895933564,0.0702733088179208,0.3825080152,23.2819173,0.04054054054054053,0.5691329671892583,0.039836318506110545,67.9590969651308
1.7469456852264365,2,Kiara,91.796875,424.0,-16.186982928,0.0488976478725,-0.019522322554681,0.03557719067953,0.0659110178512,0.3273507222,23.99087416,0.045824670824670816,0.5717107661825214,0.035859035471141276,68.0638948944528
1.7396676742429638,2,Kiara,58.08423913043478,425.0,-16.370654736666665,0.0416711336054158,-0.0165816311186043,0.0363330638938435,0.0622180156763366,0.36648075805,23.30098649,0.01143451143451143,0.5638694647012266,0.031022887848400887,67.24330690789215
1.7547423811157898,2,Kiara,124.32065217391305,426.0,-16.37801261888889,0.0419298188216,-0.01427537182883,0.0352367716311899,0.0601570494896,0.3973599161,19.56227422,0.07900207900207899,0.5635553426092891,0.030093233267952477,68.58345155749667
1.7454822467872608,2,Kiara,93.75,427.0,-16.345531837777777,0.0385684555236237,-0.0116836240871257,0.0402306441681386,0.0622181580669306,0.4136977189,19.67024589,0.047817047817047806,0.5649420093976714,0.0303785092700675,67.97867314327355
1.7517862325577302,2,Kiara,110.05434782608695,428.0,-16.249579326666666,0.03775371949611,-0.012485582970929,0.04220319113847,0.0909496482339,0.38515605045,15.441348755,0.06444906444906442,0.5690384059702939,0.031244029855787666,68.36739439947112
1.7522855601539151,2,Kiara,181.640625,429.0,-14.69637937611111,0.0323440155811861,-0.0123962086272653,0.0443416825509306,0.0725444703046435,0.39936128805,25.541598165,0.13747401247401245,0.6353474882483553,0.02981707433309742,70.61218670312529
1.711538366665014,2,Kiara,46.875,430.0,-16.416263118,0.027379824836613,-0.0123452527192419,0.045663035416832,0.06877525076522,0.3292421144499999,29.44744601,0.0,0.5619223555030067,0.028478587925281004,66.97089696943833
1.7341503061370778,2,Kiara,46.875,431.0,-15.98038616375,0.0284859445383792,-0.0120502054305584,0.045520961738855,0.0614719672259405,0.3661908606999999,28.121624055,0.0,0.5805307779486397,0.028793793333496024,67.19671968205165
1.7547034686240373,2,Kiara,55.02717391304348,432.0,-16.010849725555556,0.022992252550193,-0.010351932518375,0.0456368281963,0.0553587470635999,0.33734202435,22.865910075,0.008316008316008313,0.5792302301179983,0.02638994208619055,67.32820246442567
2.011937884793317,2,Kiara,46.875,433.0,-15.372329546,0.0205086204271999,-0.0110769161224059,0.0456799307433762,0.0567258470232673,0.35225075205,20.2220852825,0.0,0.6064898801760656,0.025678897493884027,67.48330974206385
2.388057642494734,2,Kiara,46.875,434.0,-15.510418683333334,0.0188102742068207,-0.0115942094496851,0.0425210622220495,0.0531607772838613,0.3410706246,24.83736959,0.0,0.6005945902838226,0.022886230972767898,67.39022493118802
2.343686310190904,2,Kiara,46.875,435.0,-16.25414250888889,0.017794607738903,-0.010479758499275,0.044613998150516,0.05739596756323,0.3504820333,23.521461005,0.0,0.5688435949768252,0.023917579146476704,67.01746377289372
2.3642474202659955,2,Kiara,46.875,436.0,-15.9096367477,0.0165086878265742,-0.0096645732856435,0.0446958501399554,0.0576528058221782,0.36513050395,26.84656251,0.0,0.5835512060965458,0.023465639368383667,67.19033958810562
2.366814530721004,2,Kiara,46.875,437.0,-17.58013556375,0.0166135560582119,-0.009029058448934,0.04565058669441,0.0621931881782999,0.3494455562999999,24.36038502,0.0,0.5122344104713312,0.024125023303149324,66.33981311208117
2.182098822250912,2,Kiara,52.734375,438.0,-17.11458778777778,0.0148888878768326,-0.0075486338314069,0.0434389419237198,0.0532707001261386,0.394331827,28.80516824,0.005977130977130976,0.5321095371543246,0.021737422252292464,66.67875644341285
2.150730689080579,2,Kiara,58.08423913043478,439.0,-17.401019672222223,0.0114772744863875,-0.00792200218635,0.04530551326306,0.0503589467350999,0.36622007575,26.56047651,0.01143451143451143,0.5198812111194872,0.022457531297724428,66.64692501250587
2.9404425272295285,2,Kiara,51.7578125,440.0,-18.073863692,0.0113834415679099,-0.0073614635903207,0.045464562160198,0.0501520673130693,0.38671770515,23.28341207,0.00498094248094248,0.4911562105477398,0.02249013891479079,66.17341448751006
3.0769380005596463,2,Kiara,46.875,441.0,-17.654181286666667,0.006750989078064,-0.0074910828571878,0.0450498963830999,0.0485676581256,0.3893439415999999,22.758172435,0.0,0.5090732566665919,0.021429157140477686,66.28031233712292
3.0699195633153065,2,Kiara,46.875,442.0,-18.00425651666667,0.0078452519372445,-0.0081935209304795,0.0452393690960831,0.0500309828513168,0.33774997875,25.883600960000003,0.0,0.4941278742505814,0.02182367891914902,66.10412392236017
3.0358254532140805,2,Kiara,46.875,443.0,-16.997142722,0.005301318007219,-0.009756798639251,0.0443447451015148,0.0491847823290396,0.3365837444,16.6488386855,0.0,0.5371234920717359,0.02105476115790998,66.61391999412412
3.027623224440102,2,Kiara,46.875,444.0,-17.488883698888888,0.004014263014878,-0.0101090611069106,0.0462323086378999,0.0499234050601,0.3193492760999999,24.131136995,0.0,0.5161301274477179,0.022533285857061148,66.37382781622911
3.021919834006175,2,Kiara,46.875,445.0,-17.24510792,0.0032278403380099,-0.0096896338156574,0.0436930873899009,0.0479328549566336,3.0122773890000003,0.8294831083349999,0.0,0.5265373825947194,0.02035483377562013,66.48128726134159
3.0167152618068247,2,Kiara,46.875,446.0,-16.993450255,0.3697051002944,-0.11762833348905,0.037376174284824,0.422838129138,7.167812274,-1.792894188,0.0,0.537281130563821,0.30671713519169463,68.90111064829941
2.969460910511311,2,Kiara,46.875,447.0,-16.436253939,1.050983777807921,-0.3244914424950495,0.0164567337236851,1.1026981982128714,7.37010765,-1.3747447890000002,0.0,0.5610689090462122,0.8964732825764503,73.90461316916615
2.114725790524039,2,Kiara,72.35054347826087,448.0,-16.847515002222224,1.054028642751,-0.321844926084,0.01814707351281,1.102969544213,7.2123665765,-2.309969991,0.025987525987525985,0.5435113861598567,0.8982669101367243,74.2280224347626
2.123116535822379,2,Kiara,96.8070652173913,449.0,-16.661475123333332,0.931303169020792,-0.2824424647861386,0.0242785483109178,0.975785330429703,7.007060592,-2.2177174035,0.05093555093555092,0.5514537850968587,0.7913852454904338,73.9672384037968
2.219745762963885,2,Kiara,86.9140625,450.0,-19.60176812,0.864307282404,-0.254841336933,0.02029819983167,0.904090248863,7.213242785,-1.054275174,0.04084372834372833,0.425927042601251,0.7314628072640121,71.77970153620167
2.293075108640771,2,Kiara,109.03532608695652,451.0,-18.815679104444445,0.7748829049811881,-0.2364408373138614,0.0302867187075579,0.8146730293584159,6.342108343,-0.90624645205,0.06340956340956339,0.4594866890535377,0.6562346176969514,72.03190847840933
2.572501556345508,2,Kiara,84.9609375,452.0,-20.22180695333333,0.629508869023,-0.1892968415215,0.0439722311482499,0.721948304143,6.2356495105,-2.0018626985,0.03885135135135134,0.39945639662911636,0.5301165698115754,69.81143634506903
2.6149460298301594,2,Kiara,79.4836956521739,453.0,-18.87478177111111,0.5973349765920792,-0.1655714749551485,0.0227031752611485,0.693346437869307,6.238014747999999,-2.3505322788000003,0.03326403326403325,0.45696348295541045,0.4981082520793699,70.13370847738055
2.6632412823131792,2,Kiara,105.46875,454.0,-20.67774659111111,0.5511944820881188,-0.1509986591092178,0.0467295580591386,0.6049879186623762,5.5880576,1.3963038285999998,0.05977130977130976,0.37999145977766824,0.45919866892212874,69.42891306413524
2.7013225943819434,2,Kiara,81.52173913043478,455.0,-19.120061912,0.41988672674,-0.13627509544,0.03762772150175,0.467180671809,5.636203634999999,-1.005169105,0.03534303534303533,0.4464920037118279,0.35095940767884715,68.87244001283342
2.114726606046921,2,Kiara,79.1015625,456.0,-15.246141868888891,0.3883015936544554,-0.0937332448729802,0.0533067551661683,0.4345222622475247,5.3322083005,0.7296521235,0.032874220374220366,0.6118770739247167,0.3177042359277968,70.54164318200338
1.9042367314253208,2,Kiara,76.42663043478261,457.0,-15.849454787777775,0.341285055428,-0.1176329250190599,0.066870003659135,0.395789412533,6.0330541275,4.5412801385,0.03014553014553014,0.5861204892919968,0.28792517009936014,69.93975783520945
1.9291575483043977,2,Kiara,76.42663043478261,458.0,-14.087743506666666,0.2792422816682574,-0.2015029595967624,0.020009200906792,0.4489211404009901,6.045787522,11.7056718625,0.03014553014553014,0.661331319840634,0.2694964871644271,70.69485833831362
2.111974281032143,2,Kiara,73.2421875,459.0,-12.7130172693,0.2150953036023599,-0.2653411265398,0.01826797054236,0.4513078226467,5.1438359125,20.848712345,0.02689708939708939,0.7200210172944298,0.2671102008707783,71.31507560244117
2.1622909351806703,2,Kiara,79.4836956521739,460.0,-13.276209086777778,0.1561165849498811,-0.2850929294777228,0.0068702352411584,0.4095047027861386,3.992789849,26.672682515,0.03326403326403325,0.6959772793648045,0.25303734513115156,71.04130677870754
2.0921878535323377,2,Kiara,75.1953125,461.0,-13.153537697,-0.07356443810263,-0.22963454574621,0.0374668236737,0.4827906600751,4.125665354,18.809846255,0.028889466389466382,0.7012143560689527,0.18571035867905678,70.47804447004921
2.183027471988922,2,Kiara,78.46467391304348,462.0,-12.113170747444444,-0.0627024357683148,-0.0662207738148811,0.0179494873381089,0.6722353029861386,3.667719074,-15.66832265,0.032224532224532226,0.7456296147951587,0.06027143674677479,70.07421751600674
2.115747303803229,2,Kiara,79.1015625,463.0,-13.393802175,0.016471929367929,0.13853104333348,0.1160697917839217,0.2829014049704,3.044549774,-15.753927702,0.032874220374220366,0.6909570050855852,0.13377930772899901,70.01920293034343
2.061039018045841,2,Kiara,88.65489130434783,464.0,-14.388418305555556,-0.0551465597681296,0.3362353855336634,0.1204961318277425,0.4326670200445545,1.3629908705,-73.40431748,0.042619542619542615,0.6484949364945416,0.2831728443283627,70.89971284495225
2.1104787133603904,2,Kiara,79.4836956521739,465.0,-14.894214305555558,-0.4238245591969307,0.4035800926138614,0.1070657606181782,0.6308420203950496,0.86768146305,4.342970699999995,0.03326403326403325,0.6269015360003436,0.47708400900628933,72.0047711693351
2.159531035907618,2,Kiara,92.7734375,466.0,-16.54555295888889,-0.618792513905,0.281691153336,0.0835998641265999,0.7179788614260001,0.4759704445,101.71369544,0.04682085932085931,0.5564027244380222,0.55186179357237,72.02814422825242
2.6067960157686323,2,Kiara,99.8641304347826,467.0,-17.026417729,-0.5251228264772277,0.1324810669972178,0.075379832149792,0.6412853622742575,0.38207507975,39.82462122,0.05405405405405403,0.535873685923365,0.43710189616336514,71.00838048146838
3.5377488359431406,2,Kiara,77.1484375,468.0,-20.620315706666663,-0.426124055283,0.0686352049732949,0.04115372117669,0.4566753357799999,1.1182859829999998,43.14688616,0.030881843381843375,0.3824432942891016,0.34309284680659374,67.95169917355884
3.5242315450517294,2,Kiara,82.54076086956522,469.0,-18.65136322777778,-0.3293107590653465,-0.0138572396668278,0.0362239872685742,0.3659036740118812,1.04987539715,59.47758707,0.03638253638253638,0.46650164870608246,0.2584136163005945,68.39297944252847
3.505749391998393,2,Kiara,118.1640625,470.0,-17.133475546666666,-0.3276715686779999,-0.0310499254879559,0.026549352837672,0.381265942412,0.9969855361,72.49625225,0.0727217602217602,0.5313031825328456,0.25726921927411656,69.88822714902228
3.330428983291951,2,Kiara,90.6929347826087,471.0,-17.523331727777776,-0.3564877381643564,-0.024367983211099,0.0387084055172673,0.4227029730990099,0.93741465465,45.79736415,0.044698544698544694,0.5146594750818758,0.28151523164265563,69.32200644809464
2.3979673969072004,2,Kiara,108.3984375,472.0,-18.660866427777776,-0.316707676798,-0.008742141423584,0.034426780237264,0.355845222222,0.88347524295,29.378884605000003,0.06275987525987524,0.46609593888715073,0.2477081940541371,68.8300143242764
2.3906187677642263,2,Kiara,77.44565217391305,473.0,-19.125009307777777,-0.2274732548434653,0.0265274424508168,0.0336378332639603,0.2920375342154455,0.9642427119,-6.719198889999998,0.03118503118503118,0.44628078990540626,0.17528884037834314,67.38138082559225
2.4933044538224425,2,Kiara,70.3125,474.0,-18.348510267,-0.1407360508268799,0.08551528479948,0.0447153187062999,0.304426526944,0.3779235160999999,1.5440360500000023,0.023908523908523903,0.4794310219572116,0.12478263803139218,67.22960384590816
2.6920653678968893,2,Kiara,57.6171875,475.0,-15.946409197777776,-0.1600829809082178,0.1724348686601396,0.0504748328333564,0.3396453762841584,0.2806379809,25.77394814,0.010958073458073456,0.5819813197358741,0.1829017438376292,68.66615125669298
2.8053120204439077,2,Kiara,55.02717391304348,476.0,-16.05606182,-0.1064303481059405,0.268453597630495,0.0825458554503465,0.3548846573009901,0.32411759605,47.13578845,0.008316008316008313,0.5773000391664677,0.23247574974222734,68.9537266342556
2.7982693352403207,2,Kiara,146.484375,477.0,-16.120377753333333,-0.072252182576376,0.314622348834,0.10780969920079,0.377237468776,0.37831996135,34.885373994999995,0.10161122661122658,0.574554268724185,0.2656804352462699,71.0523192388849
2.903562174005096,2,Kiara,83.55978260869566,478.0,-15.991814944999998,-0.0791325816697534,0.2391674402842574,0.0816210806668049,0.3025906936693069,0.4641044965,61.98473253,0.03742203742203742,0.5800428613761642,0.20297029782392043,69.33271746754608
3.398276631803185,2,Kiara,98.6328125,479.0,-15.183403868888888,-0.1163265287719,0.09068399539039,0.054686540468823,0.210338362607,0.50224874815,73.866664485,0.05279799029799029,0.6145554793692141,0.11371151737986036,69.34031769742926
3.268922877731724,2,Kiara,72.35054347826087,480.0,-14.816983146666663,-0.1173006310106138,-0.0033891315861089,0.0756288830091485,0.2338044102437623,0.14297753405,-68.046526415,0.025987525987525985,0.6301986821709715,0.09901538034838503,68.87425774858926
2.556941300920423,2,Kiara,112.09239130434784,481.0,-13.79907082111111,-0.075038197008348,0.1055217538847499,0.06072924023679,0.2942433469691,1.8182558603,-3.407216349999999,0.06652806652806653,0.6736553099689402,0.10184436126081148,70.2291799402751
2.484129400411821,2,Kiara,81.0546875,482.0,-13.338064767,-0.3131203491863366,0.3633499246240594,0.1162402677593534,0.5500904688633663,3.3927333135,-1.1637389999999923,0.034866597366597356,0.6933365418424051,0.39288056084848716,72.1604149362287
2.5391851867194344,2,Kiara,121.26358695652172,483.0,-12.94852350888889,-0.4873811521839999,0.546395728588,0.143982276767035,0.780250143805,3.212670625,170.96101595,0.07588357588357585,0.7099668046270196,0.602667786061637,74.85861546168884
2.818069953554436,2,Kiara,66.40625,484.0,-13.620669635555556,-0.425155472409901,0.5638375267940594,0.1537810364125514,0.761706399459406,3.1558909745,172.1060951,0.01992376992376992,0.6812715984495544,0.5831663510998706,73.23906538866902
2.86649944228746,2,Kiara,77.44565217391305,485.0,-13.297059996333337,-0.402489597184,0.471360140891,0.14026687993164,0.6643124879260001,3.5585073080000003,159.35236974999998,0.03118503118503118,0.6950871140793898,0.510746570335254,73.05071855533534
2.827165772090607,2,Kiara,69.3359375,486.0,-13.464054974444444,-0.3923714144128712,0.3602985131632673,0.1263103367660297,0.6099724249752475,3.591217474,155.31058205,0.022912335412335408,0.687957778452234,0.43766134394967354,72.2150308012709
2.6869092309282423,2,Kiara,67.2554347826087,487.0,-12.5613116136,-0.3921565798910891,0.3139532488786138,0.1023116674547405,0.5719669448237624,2.2440019685,142.77803465,0.02079002079002079,0.726497622449008,0.40875849961842947,72.40383988213594
2.629356046037935,2,Kiara,72.265625,488.0,-13.279436091111112,-0.14394061023872,0.16690965519098,0.08849108925499,0.2793131188035,3.4399259,148.60649115,0.025900900900900897,0.695839512365923,0.18029761888489235,70.31047311748823
2.747161483959409,2,Kiara,64.19836956521739,489.0,-14.335189541111111,-0.2721067758714851,0.1442086247994059,0.0853475922519999,0.3620438053207921,3.766962628,145.6472151,0.017671517671517666,0.6507673744506745,0.2484328534240955,70.15010167423121
2.8876619055254094,2,Kiara,79.4836956521739,490.0,-14.352050281111111,-0.357058164869,0.11576446187388,0.07895259067934,0.410923947647,3.9022844955,150.2646646,0.03326403326403325,0.6500475571499277,0.30157451552561587,70.87844747528473
2.95056837364198,2,Kiara,80.078125,491.0,-13.794816578,-0.3378715848207921,0.0566598279523782,0.063762468305495,0.4105789851267327,4.119084843,142.1029603,0.03387040887040886,0.673836931759737,0.27243390060307116,70.94292256334958
3.2292158439518936,2,Kiara,73.3695652173913,492.0,-13.669909482222222,-0.3421164311799999,-0.032470072374234,0.03579631508948,0.4003351520129999,4.056112384,140.367533,0.027027027027027015,0.679169455037297,0.2699766292809577,70.85038703523577
3.296121669663424,2,Kiara,76.171875,493.0,-14.41536826875,-0.3151386517207921,-0.1102427309006732,0.0102810608643663,0.3711516285881188,3.8636485675,145.0936347,0.02988565488565488,0.6473443909216988,0.26043662336345774,70.44933877568114
3.0985002411721725,2,Kiara,67.2554347826087,494.0,-15.52615333888889,-0.2947309909539999,-0.1526592246575,0.00744037726219,0.354950864216,2.826224438,140.57926859999998,0.02079002079002079,0.5999228476859187,0.2587599262150822,69.6849539977521
3.04937628513411,2,Kiara,62.5,495.0,-15.81517649,-0.1507226676362475,-0.2261897434295049,0.0071965040863118,0.3195786192910891,1.8584126275,138.69653905,0.015939015939015935,0.5875838955114506,0.2088579887631854,69.04065097502321
3.172714962973443,2,Kiara,66.23641304347827,496.0,-16.887722446666668,-0.0157813947889801,-0.2806721652415841,0.004333261523693,0.2964801229019802,2.649398597,162.41972535,0.01975051975051975,0.5417948533072103,0.21653530122964126,68.62883104453405
3.008797910673101,2,Kiara,48.91304347826087,497.0,-16.36364800666667,-0.1624281254565,-0.214214829963,0.0158742666358068,0.283324356562,2.549323287,168.96320855,0.0020790020790020765,0.564168595431886,0.20669783717161105,68.46518588413556
2.2468257775520386,2,Kiara,63.4765625,498.0,-17.201048244444443,-0.1623578227917821,-0.1983484084685148,0.0217088012419702,0.3101393964039604,3.1660872835,171.6114012,0.01693520443520443,0.5284183745755092,0.19668550255660158,68.25320860406302
2.392257668936526,2,Kiara,59.10326086956522,499.0,-18.002596043333334,-0.2071834025694,-0.16256831245337,0.0295904487648,0.4709737119239999,4.0542277815,174.4947106,0.012474012474012473,0.4941987630391377,0.20313325173644697,67.80493141984148
2.538573640352769,2,Kiara,62.5,500.0,-17.740316200000002,-0.338601526480198,-0.1133181579218514,0.0191964379325346,0.4656871439693069,4.248486902,172.20204035,0.015939015939015935,0.5053959921565132,0.27999224763966873,68.62347020577583
2.606811843533597,2,Kiara,51.97010869565217,501.0,-17.711355502222222,-0.35198949501,-0.0914007251592,0.03680245717736,0.378644108293,4.069766888,175.4528011,0.005197505197505194,0.5066323798418786,0.28658850152963233,68.47624667428971
