timestamp,BrightnessEV_mean,trial,experimenter,Peak-Frequency_mean,Sound pressure level (dB)_mean,Linear Acceleration x (m/s^2)_mean,Linear Acceleration y (m/s^2)_mean,Linear Acceleration z (m/s^2)_mean,Absolute acceleration (m/s^2)_mean,Inclination (deg)_mean,Rotation (deg)_mean,Peak-Frequency_norm,Sound-pressure-level_norm,Linear-Acceleration-norm,heart_rate
0.0,5.740331825795782,1,Kiara,87.23958333333333,-23.35683358875,-0.058900404588219,-0.20879845762801,0.050871740968176,0.2635908360866,4.5556397755,-0.0290636249499999,0.1212121212121212,0.2474167597742766,0.18214205196695968,66.85037995726942
1.0,5.767378571963387,1,Kiara,156.25,-21.439578639,-0.0939539072752742,-0.2068589613750594,0.0036099551565871,0.2962109072546535,3.948957536,-0.7516341094,0.3284457478005865,0.33643145554495324,0.18609027528574057,72.09481462483708
2.0,5.842847681006998,1,Kiara,207.23684210526315,-20.293018583333332,0.02029360456143,-0.2173661956036369,0.180351385092,0.6900762748214,3.9655727725,-0.97956193475,0.4815557956474764,0.38966417483003674,0.23637564121272928,76.19809114061181
3.0,6.008649901079328,1,Kiara,155.2734375,-20.32388001,-0.0784038140407415,-0.1111891866994455,-0.0483446690153465,0.2782200221872277,4.0418349415,-3.760483362,0.3255131964809384,0.38823133434831536,0.11163584877742189,72.06212673201793
4.0,5.970797581743429,1,Kiara,181.640625,-22.55461624333333,-0.011427835869013,-0.1683534891398,0.06569322812845,0.6055316150091,4.1681324835,-2.1195112306,0.4046920821114369,0.2846622669268522,0.14461371993761946,72.66669860485192
5.0,5.897492127007066,1,Kiara,139.60597826086956,-22.118384495,-0.015479529795846,-0.1272070507067327,0.0527897860360465,0.1800021308834653,3.9018646385,2.9707277375,0.27846487313527984,0.30491572167394526,0.1064288558010647,70.07971696920146
6.0,5.910972247148046,1,Kiara,75.1953125,-22.995578522222225,-0.014364439724015,-0.1279325147263,0.061012976375046,0.1577422574393,3.7147156965,-1.11018894695,0.08504398826979472,0.2641891821622217,0.10990702934912053,65.75040618613552
7.0,5.9420755593176535,1,Kiara,66.23641304347827,-23.188590072222222,-0.0136246161883643,-0.1114346525287128,0.0704491646570594,0.1458436635268316,3.793528933,-5.308127901,0.0581410174678057,0.25522800336556933,0.10098694925268127,65.0334519837644
8.0,5.967168464197751,1,Kiara,55.6640625,-22.297319212222224,-0.0159349650283,-0.06121708221145,0.07914509271403,0.1309834536132,4.210271280000001,-1.51335213065,0.026392961876832845,0.2966081048812881,0.07292666553586843,64.67056982039907
9.0,6.2780514042784334,1,Kiara,64.19836956521739,-20.210676126000003,-0.0053676640044257,-0.0104691472646663,0.086946551002297,0.1141089402353465,4.7490661885000005,1.52844842425,0.0520209103659314,0.3934871868866711,0.060721606743648536,66.24803730390786
10.0,6.236075965805576,1,Kiara,101.5625,-20.486441192222223,-0.0066237944583328,0.0217745245242316,0.1303352416104455,0.1549717844270297,3.7399018595,-2.549392538,0.16422287390029325,0.3806839113091835,0.10077953993101095,68.65890073316416
11.0,5.806327904445133,1,Kiara,91.796875,-22.47096292111111,-0.0612384945318487,0.058102861003052,0.08534808804918,0.1460059014968,5.03311664,-7.087018449,0.1348973607038123,0.2885461400803879,0.08975654139830479,66.87855322622734
12.0,5.684951024056811,1,Kiara,63.17934782608695,-23.07863604111111,-0.141615757167495,0.0849760566969703,0.1257455825744356,0.226960836990297,5.323589299,-12.92936212,0.04896085681499425,0.26033297108485537,0.16843053338363062,65.4506570563872
13.0,5.734696804106472,1,Kiara,63.419117647058826,-20.997607629,-0.09260887064459,0.090841509149936,0.1666886465212,0.2297633840274,5.247801754999999,-13.708471715,0.049680869415214775,0.3569513738791,0.17170507138390373,66.65067444592472
14.0,6.048460054158137,1,Kiara,68.75,-19.579666366666668,0.0129933879100821,0.091243791361297,0.1070190639410316,0.1675724043570297,5.3418861495000005,-8.8956311735,0.0656891495601173,0.4227838340345681,0.1088035332428316,67.25761726555982
15.0,6.145606377633222,1,Kiara,78.125,-19.425424066666668,0.0868011335636819,0.085274509609257,0.12268079998052,0.3123062268825,5.8786241245,0.3584662435115,0.093841642228739,0.4299450263482245,0.1371658674385554,68.13350010026191
16.0,6.253145442231188,1,Kiara,89.84375,-18.56859036666667,0.0206733678957891,0.0698416128999109,0.1093265778627435,0.252074851320495,5.334475508000001,6.2693022015,0.12903225806451613,0.46972627252078414,0.09993506624233259,69.0168409614784
17.0,6.331930722249301,1,Kiara,81.52173913043478,-17.738339685555555,-0.0105846976186973,0.104352467295099,0.1070038495990792,0.3693344488988119,5.35465595,0.4295622850000002,0.1040418207318628,0.5082733169825233,0.11653541968996722,69.11239957594728
18.0,6.34798197421937,1,Kiara,120.1171875,-15.051998137999998,0.066587111072719,0.33033004875869,0.14018503644854,0.4134314551047,6.221342323,3.302480569,0.21994134897360704,0.6329953189379581,0.30989552156369815,74.47393497923721
19.0,6.293101081352001,1,Kiara,79.4836956521739,-17.58048876666667,0.0942870149103673,0.5022856866546535,0.2637016624462079,0.6922520273792079,9.2412830325,0.1180636224999998,0.0979217136299885,0.5156020509747595,0.4987421624032114,72.13559618352258
20.0,6.287013511262273,1,Kiara,78.46467391304348,-16.41805878888889,0.05854357660983,0.489436601971,0.15300806809073,0.633557588164,9.2026040695,-0.1422135099,0.0948616600790514,0.5695715821735685,0.4457536107640421,72.29812107377619
21.0,6.326890170086134,1,Kiara,79.1015625,-15.487799173,-0.1125934170688812,0.3928426768396039,0.2433646932575247,0.5293608513118812,9.0510672125,-5.7614195525,0.0967741935483871,0.612761861435538,0.40936010881472407,72.563507078712
22.0,6.39071088188252,1,Kiara,87.63586956521739,-15.342985135,-0.18557229107942,0.332513337689,0.181774357654727,0.4719681055649999,9.703578841,-4.8672871436000005,0.12240214203748566,0.6194853165178025,0.36111053742565086,72.77075093836855
23.0,6.310342045880036,1,Kiara,65.4296875,-14.65565950222222,-0.3103197880777227,0.3017191875990099,0.102011740027495,0.5092826506801981,9.674900802,1.1401157204999994,0.05571847507331378,0.6513966082868392,0.38153655540876136,71.98342124417843
24.0,6.26679667658046,1,Kiara,58.08423913043478,-17.45245603,-0.4007371418059406,0.2543029811619802,0.1260436863631485,0.5219402873267327,9.161569722,1.839912089,0.033660589060308554,0.5215463804467251,0.4232303655959491,70.31761127133447
25.0,6.19155915289178,1,Kiara,61.78977272727273,-19.382233706,-0.330634777126,0.202741247987,0.129533894599784,0.422843144154,9.2235363245,-10.1832997565,0.044788056518261794,0.431950277040351,0.349382338501097,68.87422316285823
26.0,6.107952053492331,1,Kiara,65.91796875,-19.675149385555557,-0.2411573525225742,0.1820600325791089,0.1219334700665396,0.3414555182099009,9.336178444,-15.137380495,0.05718475073313783,0.4183507293612598,0.2747234449934175,68.36169132694522
27.0,6.075797666527568,1,Kiara,134.765625,-18.565011456666667,-0.0158537765312899,0.133281386805,0.11638417902715,0.223907135478,9.8507100105,-15.892879255,0.26392961876832843,0.46989243486913657,0.1415356214721319,72.04958656557326
28.0,6.035820557462502,1,Kiara,121.875,-18.34421306222222,0.2247636162137277,0.0985359900510297,0.0682598686980287,0.2950773040534653,9.579709128,-8.688306323,0.2252199413489736,0.48014370682996216,0.21081207575864264,71.95261991500816
29.0,5.767166605944153,1,Kiara,107.14285714285714,-21.368496381,0.388529909222,0.104118506911983,0.1263086055301699,0.451806088853,9.583059538,-4.570322239,0.18098031001256806,0.33973167681776195,0.36079718583394227,70.58276380873605
30.0,5.794927225201167,1,Kiara,102.5390625,-20.44342350777778,0.4950806064148514,0.1942653078995049,0.1616964238250594,0.5684812536287128,11.276266005,-6.788974641499999,0.16715542521994134,0.38268114495517325,0.48147285029304354,71.78706504620526
31.0,5.888929782910062,1,Kiara,110.15625,-19.31329523,0.6027334730792079,0.1946064147849703,0.1526884639118267,0.6690855593534654,10.994920915,-0.1770563075,0.19002932551319648,0.4351509663742522,0.5674402912128381,73.56192043645765
32.0,5.977667029371312,1,Kiara,91.28289473684212,-20.71733693,0.528718730649,0.2228215995711,0.14953938281592,0.615360442428,11.480074905,2.1989693085,0.1333539126408397,0.36996383787517584,0.5147753134903367,71.22484681524159
33.0,6.089838931486381,1,Kiara,230.29891304347825,-19.98012381222222,0.3956997320613861,0.2148390227491089,0.1721098054410594,0.5157116474841584,11.64040703,3.7059806625,0.5508096391686854,0.4041913157626095,0.4151102894591852,79.1873708881985
34.0,6.087444435675324,1,Kiara,108.3984375,-18.955732583333333,0.259893588084,0.2698589280093,0.14980962942917,0.427921163713,12.113096735,4.063300419,0.18475073313782991,0.4517519563553404,0.3445244543701968,71.87223377398226
35.0,5.980195096149888,1,Kiara,285.3260869565217,-14.83527656111111,0.0626704450945653,0.2628191381386138,0.1345770723622699,0.3356773534683168,12.958132175,1.56973449255,0.716052530919291,0.643057311598987,0.2531616637545938,84.06303166761042
36.0,6.030631826108902,1,Kiara,333.984375,-17.690837944000002,-0.092928966690525,0.241542493982,0.1874250483863,0.345788567994,12.944210565,-0.6562549418000001,0.8621700879765396,0.5104787373277394,0.2690639952403814,85.52165856938672
37.0,6.054958589058117,1,Kiara,179.34782608695653,-18.750299532222225,-0.1653326354636633,0.2429057823465346,0.1130242817853069,0.3479693589267327,12.666264730000002,-0.8010980939500001,0.3978069616218284,0.46128984308672244,0.26482178277211516,75.61019161165416
38.0,6.124583466577391,1,Kiara,187.5,-17.751185808888888,-0.1518457225576237,0.1889850058588712,0.1467536326464099,0.3124471142326733,12.1723087,-1.01998697045,0.4222873900293255,0.5076768946024438,0.2365700849803727,76.43043121565881
39.0,6.022468815592048,1,Kiara,185.46195652173915,-15.400088121333331,-0.09806203261433,0.14838204634778,0.13091298379722,0.287728641273,12.65477372,-2.458279748,0.4161672829274513,0.6168341276622351,0.18035452472513877,77.16819138829696
40.0,5.8358708316566,1,Kiara,164.0625,-15.5059393507,-0.0962138074452871,0.1356531945063168,0.0846086952410099,0.3356863671564356,13.086568995,-3.1672389115,0.3519061583577713,0.6119196456418576,0.14957230339592764,75.57773734202513
41.0,5.458886590450047,1,Kiara,206.86141304347825,-19.73329671444445,-0.0834491619190946,0.099710279338884,0.11624848853773,0.2312346575526,12.107012475,1.3931953111,0.48042840749713117,0.4156510535609197,0.1386229127330357,75.70536409453794
42.0,4.505199403402703,1,Kiara,185.46195652173915,-20.44210351,-0.0704978249891623,0.0410686297719009,0.1058576795511059,0.1731324525282178,12.279901355,0.02680851065,0.4161672829274513,0.3827424300756641,0.1019864926458767,73.732146760624
43.0,3.716936899129552,1,Kiara,213.8671875,-18.89713020111111,-0.061839522885768,0.01310282382635,0.06607407481772,0.1674982786753,12.390133095,-0.7395518183,0.501466275659824,0.45447275946273524,0.06404968719967061,75.99539612434667
44.0,3.14946062719028,1,Kiara,169.1576086956522,-20.873719687,-0.0539108683131524,0.0054520972921919,0.0456561771546316,0.1665408207824752,12.24358994,0.65426415235,0.367206426112457,0.3627032679963759,0.04554749686258875,72.06094771310636
45.0,2.666531814829491,1,Kiara,121.09375,-22.61446617888889,-0.041555723374393,-0.0161168339932,0.08848993150475,0.1549974475552999,12.20341834,1.0044186904,0.22287390029325513,0.2818835421641036,0.07091603207309692,68.40740876841912
46.0,2.755216895782745,1,Kiara,73.3695652173913,-21.97961126555556,-0.0343516344617455,-0.0173855653769653,0.0942519811867029,0.1337541075543564,12.143733555,-1.52664880955,0.07956139232436565,0.31135871288996575,0.07337059027718007,65.91449712338434
47.0,2.8359365599849498,1,Kiara,87.890625,-21.58999087666667,-0.0233125577800287,0.0287637954709999,0.079097642387794,0.1238657552546534,12.66464321,-0.7848132627350001,0.12316715542521994,0.32944808613034776,0.060357879843334086,66.89958318081524
48.0,2.920494811814531,1,Kiara,177.30978260869566,-20.979380247777776,0.0213791088100099,0.26003535136,0.15429963031581,0.324853990041,14.05712542,0.0292770708,0.3916868545199541,0.35779763837532885,0.25430764603432615,74.16176991917763
49.0,2.9709100275700373,1,Kiara,101.90217391304348,-22.057047795555555,0.0032924171546811,0.2807610892343564,0.1771698179740297,0.3481290768069306,14.047869735,-0.3870243891,0.16524289175060566,0.307763474207502,0.28026543151151306,69.24014297759425
50.0,3.051552348406916,1,Kiara,139.6484375,-21.29652858,0.020787201906304,0.234491067652,0.1437722155424,0.285834216439,14.3487273,0.3623757843999999,0.2785923753665689,0.3430730122578582,0.22978696821100636,71.52701940011373
51.0,3.209348529700484,1,Kiara,134.5108695652174,-22.64121812444445,0.0140167196002079,0.1917704819009901,0.1441245797598356,0.2819991458164356,15.01792136,-0.5224909964,0.2631646053805942,0.28064149749226047,0.19784274597656495,70.21373204533153
52.0,3.147514268940316,1,Kiara,83.984375,-21.958038394444443,-0.00068787161121,0.1719302806668,0.14240911263107,0.2367568176027999,14.905605625,-0.1540134704,0.11143695014662756,0.3123603024590038,0.18251855304567302,67.43721105680598
53.0,3.179426195877833,1,Kiara,81.52173913043478,-22.54473768222222,0.0139431072585724,0.2077260325359802,0.1588831199578119,0.2916694050938614,15.133532645,0.5545711358,0.1040418207318628,0.2851209107353203,0.21725073540613848,67.24029322671021
54.0,3.1863057020276693,1,Kiara,55.6640625,-21.63059159777778,-0.0012801616583108,0.0744988912193029,0.1172803426892871,0.2439342685999999,14.205115795,-0.16985771515,0.026392961876832845,0.32756306774077626,0.10674748815421278,65.31259595565967
55.0,3.195173014298504,1,Kiara,68.27445652173913,-22.127793722,-0.04359368167679,-0.4010222252601,-0.005796853584953,0.4198705360225,11.295634555,-1.49871686705,0.06426112456967996,0.3044788682033354,0.344459176743695,67.69464232378319
56.0,3.277345167105815,1,Kiara,82.03125,-23.01218602666667,-0.0703052044250534,-0.6850791294336633,-0.1020612561063514,0.7178716819871287,9.6462998725,-1.9139921765,0.10557184750733138,0.2634181256285953,0.6076008665984927,70.13326139047771
57.0,3.272530870724447,1,Kiara,69.29347826086956,-16.446611763333333,-0.0620628706278199,-0.581228153564,-0.07821882358844,0.5937119772180001,8.98775428,0.59692099475,0.06732117812061711,0.5682459189727243,0.5119186965139411,72.26072416219657
58.0,3.2068963264709947,1,Kiara,118.20652173913044,-20.67804433,-0.0443838767150148,-0.4587102875138614,-0.0577743347552871,0.4666874645633663,8.6196063455,1.54928485865,0.2142037485655999,0.3717881225565089,0.3993155977554982,71.94005722403409
59.0,3.1922728687062523,1,Kiara,84.9609375,-23.14416320333333,-0.037561330112562,-0.365332921531,-0.03351067357088,0.372311578559,8.6280981065,-1.2049893053999998,0.11436950146627566,0.2572906629084246,0.31332326105038016,67.88146407262965
60.0,3.2146343612233546,1,Kiara,80.50271739130434,-23.215262889,-0.0360210952191188,-0.289559155820792,-0.0075020529425294,0.2989166576366336,9.132926438,0.2584900445,0.10098176718092565,0.2539896325004266,0.2442088441501862,67.02118168682512
61.0,3.2033242916585256,1,Kiara,52.734375,-22.78592563555556,-0.0175680952057851,-0.2319069511633663,-0.0030147838647693,0.2435245235326733,8.929148221999998,2.0744716785,0.017595307917888565,0.2739229882616717,0.19091357281354293,65.16629060000618
62.0,3.257633013387581,1,Kiara,54.00815217391305,-22.287166156666665,-0.027070338745959,-0.1818387618119999,0.0016603695093846,0.189343534136,8.6746372075,0.334121879,0.02142037485656,0.29707949297265207,0.1471057214140427,65.17020718411537
63.0,3.32465071301705,1,Kiara,67.3828125,-22.715695175555556,-0.0097804209742296,-0.1573097615910891,0.038567823402396,0.1735444269356435,9.018437698,-0.4479641286,0.06158357771260997,0.2771836620867935,0.12770389743877117,65.5795066788039
64.0,3.3437516780112486,1,Kiara,72.35054347826087,-23.407243471,-0.0118500465439034,-0.1258176645324999,0.02469089135419,0.1378051920909,9.2481088065,-0.20282202369,0.07650133877342855,0.24507631969200971,0.09759458312900278,65.25169927680471
65.0,3.423830771912768,1,Kiara,104.95923913043478,-24.599016966666667,-0.0091245632004891,-0.0987057098271287,0.0269084406547227,0.1170985553213861,8.802956754,1.8793730245,0.17442305240341704,0.1897444217834102,0.07418098406090974,66.35884198195654
66.0,3.454414206969048,1,Kiara,70.3125,-25.123350707777774,-0.00585800202941,-0.084256453816,0.0476821023702,0.1060926293941,8.355141726,0.74245126696,0.07038123167155426,0.16540055011762475,0.06903636109074736,63.94472212356856
67.0,3.469149494045056,1,Kiara,56.04619565217392,-22.206090999,-0.0087300301943404,-0.0697797467536594,0.0628738420499207,0.1609080487127722,8.983777706,-1.5805967987999998,0.027540481958434296,0.3008436665872247,0.06664751780722321,64.69411378067316
68.0,3.444146584242765,1,Kiara,56.640625,-20.61938336,0.0820268413647029,-0.0486737789699604,0.0462526394661386,0.4605704757646534,8.996683939,2.615173479,0.02932551319648094,0.374511645788953,0.07713812121251515,65.69775498309717
69.0,3.441893477275344,1,Kiara,58.08423913043478,-21.524992074444445,-0.11740173307953,-0.04571920815767,0.01313215053965,0.5774030852683,8.60810009,1.542984489,0.033660589060308554,0.33246586350316093,0.09571462700448971,65.42851915928001
70.0,3.410883003984179,1,Kiara,52.734375,-22.135361087777778,0.0074112036486534,-0.073859631345198,0.0323680148570792,0.528968969750198,8.6211686655,-0.42930000995,0.017595307917888565,0.304127529033455,0.05464729128442199,64.4386148370346
71.0,3.271369366842817,1,Kiara,65.21739130434783,-23.27179488333333,-0.0216883809511399,-0.0408686050954299,0.07263529981848,0.3142332929139,8.9863257575,0.6004545606199999,0.05508096391686855,0.25136495377548856,0.05926581116758884,64.59212521298394
72.0,3.0105062272552128,1,Kiara,75.1953125,-23.55764781,-0.0009554554800851,-0.0427636637774554,0.0560775075098118,0.1325517902072277,9.2895864955,-0.6910021668499999,0.08504398826979472,0.2380933169982781,0.04525340098485727,64.9200267772541
73.0,3.048794281380833,1,Kiara,86.61684782608695,-24.352654938,-0.012065583683688,-0.035158281531563,0.0487076396758959,0.1041370323516,8.546661705000002,0.92986693075,0.11934208848654851,0.2011825672601344,0.03693230326138102,65.09649100294364
74.0,3.073621246464572,1,Kiara,94.76902173913044,-23.038558606666665,-0.0161196674317019,-0.0370994515028118,0.0662173667967871,0.0937706707884158,8.550213735,-1.5230664865,0.14382251689404565,0.26219369421654254,0.05160414659313965,66.43560784122454
75.0,3.105088841976306,1,Kiara,72.265625,-24.623020333333333,-0.0006257518502673,-0.0243378541315923,0.0427595244141287,0.0712997784106534,8.856627752,-0.4892037078,0.07624633431085044,0.18862998868123781,0.0260873086720382,63.99718501976817
76.0,3.1535408782768366,1,Kiara,54.00815217391305,-23.951070611111117,-0.008483365403567,-0.0271034642277099,0.0528840368453299,0.0656709340941,8.9806463965,-1.7651133445,0.02142037485656,0.21982740460372668,0.03581468225821794,63.352853810441665
77.0,3.1989827934852686,1,Kiara,65.4296875,-24.281983601,-0.0092673450785811,-0.0227581101419355,0.0568462947908188,0.0738132155138613,9.0220806625,-1.0087058224,0.05571847507331378,0.20446371021067536,0.03752468017808126,63.868131465419026
78.0,3.271638849150165,1,Kiara,57.06521739130435,-24.367923406666662,-0.011103452670422,-0.02144402898233,0.06169447521047,0.074529091371,8.7244515785,-1.934426765,0.030600535509371425,0.20047367974706565,0.04140941675227711,63.34897020117043
79.0,3.3265205736609307,1,Kiara,56.640625,-23.68920001777778,-0.006835475424399,-0.0221405254880712,0.0584791384455217,0.0768708743938613,8.774531574000001,-3.126992972,0.02932551319648094,0.23198558481856624,0.038398900783437565,63.67752848801992
80.0,3.26391383560174,1,Kiara,60.12228260869565,-24.16481499777778,-0.007045159939268,-0.0140748854218599,0.0473337369559399,0.0604761259237,9.009487188,-3.412637209,0.03978069616218283,0.20990363752501673,0.026696135837129428,63.52802666024089
81.0,3.135682583005304,1,Kiara,63.17934782608695,-25.352697272,-0.0096580827313548,-0.0166794807983336,0.054470547915596,0.0692554253354455,9.028204574,-3.3327072665,0.04896085681499425,0.1547524020228951,0.03379471918871259,63.10660371408433
82.0,3.151949097056377,1,Kiara,62.5,-21.98337781111111,-0.0065766252298465,-0.0187733600402392,0.057535687308894,0.0688170315836633,8.974682456,-2.250978251,0.0469208211143695,0.3111838389605609,0.0365785873456832,64.96525118857959
83.0,3.1934723699161327,1,Kiara,78.46467391304348,-16.163229758,-0.009488713370881,-0.017358769440583,0.05531405780903,0.0702671065998,8.7635664395,-2.31699787,0.0948616600790514,0.5814028353207145,0.03466233533955813,69.15136590814606
84.0,3.229278854780232,1,Kiara,68.359375,-21.04782573411111,-0.0100529452771861,-0.0150392760198405,0.055979500069289,0.0774544753299208,8.4839611475,-1.06696677005,0.06451612903225806,0.35461983766414423,0.03473830867129161,65.82366710198522
85.0,3.2598677184506517,1,Kiara,85.59782608695652,-27.674987927,-0.00828704093548,-0.014703174591415,0.0577311330374,0.0634656500545,8.942030755000001,-3.0202998,0.11628203493561136,0.04693262762467785,0.03592279534038198,63.176214592931416
86.0,3.363635357102817,1,Kiara,87.890625,-26.61126939,-0.0066083463753761,-0.0134733366696626,0.054012068314495,0.0592200397217821,9.0760443035,-2.396698386,0.12316715542521994,0.09631916433385722,0.03224707233754652,63.87714965921106
87.0,3.3786249267615776,1,Kiara,109.03532608695652,-25.479248218888888,-0.0126413202711979,-0.0620350082784669,0.0390731122815099,0.1028225961264,7.822519406,-2.38811056,0.18666326660716562,0.14887686938271377,0.04872962528162596,65.90962476698888
88.0,3.398057662605807,1,Kiara,70.3125,-24.152702696,-0.0243600999653,-0.2095773362713861,-0.0033127081868792,0.2275127768006931,7.524456656,-2.7949730445,0.07038123167155426,0.21046598989133727,0.1715206459104889,65.30538167941104
89.0,3.4003118008256465,1,Kiara,57.06521739130435,-24.18526366777778,-0.0477161402920399,-0.489982348926,-0.08386949093458,0.5016190150740001,5.653655972999999,-5.535413666,0.030600535509371425,0.20895424258972012,0.43071350806163883,66.56516968575718
90.0,3.343562073185298,1,Kiara,63.17934782608695,-24.280582814444443,-0.0504914802163405,-0.4847823650138613,-0.0930517562282277,0.5011759207396039,4.582311583,-5.1285696125,0.04896085681499425,0.20452874620867803,0.4278502442112901,66.85636404449434
91.0,3.2968604213781787,1,Kiara,76.171875,-23.317969532,-0.0552446856184257,-0.4863053475940594,-0.0856803393514851,0.510339246920792,3.9546314795,-5.2652901255,0.08797653958944282,0.24922114796399897,0.42845122293500987,68.17779435083692
92.0,3.2009965569453893,1,Kiara,93.75,-25.96545924444445,-0.0562548592747628,-0.4435234548319999,-0.06392645097781,0.4554161887219999,3.5348094515,-8.1393808685,0.14076246334310852,0.12630296676959468,0.3877788691363053,67.43311582118776
93.0,3.178244507706151,1,Kiara,141.6015625,-22.84021244333333,-0.0510414877364356,-0.4307765028534653,-0.0576280212104198,0.4394843876920792,3.2351031255,-6.2645050775,0.2844574780058651,0.271402549506602,0.3751750637366373,71.94738066408962
94.0,3.088342948914819,1,Kiara,121.26358695652172,-23.52037002111111,-0.0457642764844,-0.403157444235,-0.04209521645135,0.4114519214309999,2.7338503365,-2.3572046330000003,0.22338390921841125,0.2398240576268944,0.34850195464695183,70.13358251306657
95.0,3.0563082562983266,1,Kiara,135.7421875,-22.209331466,-0.0468521210876712,-0.3441539020673267,-0.0201349449913337,0.3543694673712871,2.407165713,-5.0434717635,0.2668621700879765,0.30069321753807904,0.294562860246555,71.30206489418892
96.0,3.1163062991464483,1,Kiara,179.34782608695653,-20.577246575555552,-0.047088966114017,-0.288902482006,-1.074718235000105e-05,0.302471485687,2.592878609,-3.491637106,0.3978069616218284,0.3764679808337869,0.2449525207594805,74.43337516851786
97.0,3.1437928820941474,1,Kiara,77.44565217391305,-22.03397937222222,-0.0199115354024455,-0.2450638246544554,0.0308031667934851,0.2632197057217821,3.147661257,-3.3858047855,0.09180160652811425,0.3088344995738435,0.20457742671577936,67.17866553917465
98.0,3.041557020258395,1,Kiara,113.28125,-23.2405083,-0.0345480191350613,-0.1799030381461386,0.0069261427277801,0.2396056417148514,3.3294204115,-14.289309802,0.19941348973607037,0.2528175335158532,0.1466302074313122,68.19512185636214
99.0,3.1915439228736844,1,Kiara,73.3695652173913,-23.940857656666665,-0.00968186389584,-0.13022376664292,0.05969671550848,0.1741887244444,2.9535249445,-2.9245690214999995,0.07956139232436565,0.22030157369266876,0.110912568918432,65.1221472821468
100.0,3.2683144068172862,1,Kiara,85.9375,-23.879412274,-0.0100892698384673,-0.0436993224906732,0.0771178504257227,0.1157453501913069,3.52225623,-7.70408175,0.11730205278592376,0.22315437219257572,0.06204462581136629,65.52025052852031
101.0,3.308697496383416,1,Kiara,57.06521739130435,-22.633931554444445,-0.017809262324118,0.0305328883678711,0.0906403444644299,0.1872571171814999,4.929572959,-2.096686848,0.030600535509371425,0.2809797998196827,0.06930491842713325,64.53820765544069
102.0,3.351360931057493,1,Kiara,60.546875,-22.266051023333333,-0.0028585430790405,0.0655026981028019,0.1457174307792475,0.2708044905644554,4.4505202,-1.141648337,0.04105571847507331,0.2980598306007119,0.12547918622256873,65.40166582649056
103.0,3.3576018082186336,1,Kiara,73.3695652173913,-23.150955954444445,0.013448084186736,0.0872297425095,0.138002031113162,0.1871268109669999,5.1554004075,-0.0737473555000001,0.07956139232436565,0.2569752877030141,0.12909572289987542,65.70769708212248
104.0,3.293668509334326,1,Kiara,79.1015625,-22.090561133,-0.0198065615982247,0.0826995214381871,0.1469805393568317,0.1920343942569306,5.00610753,-9.242779879,0.0967741935483871,0.3062075102824818,0.13448478350093912,66.68585226236503
105.0,3.182971702392009,1,Kiara,89.67391304347827,-18.66760774888889,0.0103315817464349,0.09549005963,0.1663702364570891,0.2702573243920792,5.578490825,-4.501056872,0.12852224913935995,0.4651290737206615,0.1545246501461064,69.38819106860399
106.0,3.307885463272453,1,Kiara,115.14945652173913,-16.69062789,0.0149243080662,0.14236260387726,-0.0259471890222199,0.4974099568471999,5.049184952,-5.224562686,0.20502358791278846,0.5569166895026403,0.11261476681923889,71.68439016684137
107.0,4.094302868049466,1,Kiara,125.9765625,-14.290469431111111,0.0317057183610594,0.074395126301297,0.2775559278594653,0.5779677253219803,5.9302445835,-14.075108428,0.2375366568914956,0.66835172585358,0.24170093861322786,74.7045613569787
108.0,5.762062898126487,1,Kiara,125.33967391304348,-11.6896341143,0.00921695196297,0.2657081358022,0.17755090794586,0.5008229083783,7.655175689,-9.8823339325,0.2356241234221599,0.7891038274484986,0.26920933942436454,76.3354031132201
109.0,6.02194916661512,1,Kiara,88.8671875,-15.285508067777776,0.0373711279437326,0.5899649950962376,0.2451970022272277,0.8804750584633663,7.9203390185,-8.8441275225,0.12609970674486803,0.6221538732756005,0.5570735748643664,74.44442921311949
110.0,6.061962342212382,1,Kiara,106.99728260869566,-17.441355292222223,0.05863889755258,0.617121706384,0.24930712566304,0.8060745418199999,9.582082252,-4.5023618925,0.18054315950529135,0.5220617677175978,0.5823957702573832,74.53477056477607
111.0,6.025400273324519,1,Kiara,83.0078125,-15.941107877777776,0.0957215525620495,0.4543077075348515,0.1933242332798911,0.6577242800772277,9.1009396425,-0.75047146,0.10850439882697947,0.5917155543435915,0.4338867526781723,72.74176865008806
112.0,5.788519143498563,1,Kiara,99.8641304347826,-20.004254516666663,0.0836926854921782,0.2856171946057426,0.093330494745901,0.5572357105564356,7.698892494000001,-5.065998002,0.1591227846487313,0.40307097059665536,0.2622112438790851,70.11699729116717
113.0,5.70647311660942,1,Kiara,117.1875,-19.532380931,0.15748202421271,0.31298756089,0.2099653104406661,0.474436498402,8.677013205,-5.17343029,0.21114369501466276,0.42497921168676883,0.34899179347956527,72.114558788371
114.0,5.48675014760978,1,Kiara,122.0703125,-19.495540883333334,0.2360670167873267,0.1945413891126138,0.1451884430192772,0.4179241036386138,8.892786213,-10.640172291,0.22580645161290322,0.4266896287784827,0.28619863597085077,71.92599366536666
115.0,5.385601496277598,1,Kiara,80.50271739130434,-21.95224044888889,0.3758266428214999,0.13889255912993,-0.04159022167094,0.46272430774,8.545876753,-7.7312972945,0.10098176718092565,0.3126294906333725,0.3439170773884878,68.52252585032689
116.0,5.6478704182081225,1,Kiara,101.5625,-20.449578644444443,0.3826754170386139,0.0353937463313504,0.0619050452523366,0.4228477094613861,8.8338972545,-1.7939572275000002,0.16422287390029325,0.3823953730405505,0.33172894562205313,70.5270335194689
117.0,5.486014701838415,1,Kiara,97.82608695652172,-19.117184606,0.334828637564,0.02034161540967,-0.01217780308241,0.35740963147,8.664211255000001,4.5913072135,0.153002677546857,0.4442560295976039,0.2835574987651276,70.6595858962294
118.0,5.307968434626819,1,Kiara,97.65625,-19.13683033888889,0.2688776025401089,-0.0197810552886514,-0.0030246662376246,0.3202890127855445,9.1161600135,6.242970103499999,0.15249266862170088,0.4433439135868853,0.22419608971388771,70.16354905318775
119.0,5.10878161363684,1,Kiara,98.84510869565216,-18.445123657777778,0.136395746521245,-0.01933672170037,-0.05346489340366,0.2824187962763,9.2068427365,5.468159159500001,0.15606273109779417,0.475458609543038,0.11467780452660575,69.74418037268518
120.0,5.332985292499174,1,Kiara,124.0234375,-18.051421472222223,-0.115067702929891,-0.0096759464115841,0.0212517284479306,0.2280413722972277,9.3344660535,1.894536145,0.2316715542521994,0.49373749325438154,0.08739254508792721,71.25742136479998
121.0,5.501361661507579,1,Kiara,125.33967391304348,-19.441246947,-0.2263784970494059,0.0014029467673069,0.0691296043946188,0.2970454345415841,9.401397643,-1.7889291437,0.2356241234221599,0.42921039849955417,0.19460902246167014,71.4198794301312
122.0,6.180486182165262,1,Kiara,136.54891304347825,-16.278397621222222,-0.169704074034998,0.01817842628194,-0.017307267165566,0.251600387574,9.7826295825,-0.4735910565000001,0.26928471248246844,0.5760557987627325,0.13605056879960312,73.38676838519898
123.0,5.905972600073379,1,Kiara,108.3984375,-11.767200017777778,-0.2055203569487227,0.0770728066014037,0.0140486129570396,0.3745629217509901,10.476257755,-3.40098628235,0.18475073313782991,0.7855025821883664,0.17954827202703114,74.55743182523324
124.0,4.4926238572023145,1,Kiara,74.38858695652173,-18.54214992111111,-0.11971673996091,0.0993041171169657,0.21118340824813,0.476521109531,10.1667066,-0.6058748745,0.0826214458753028,0.47095385480840635,0.21759963256555662,69.04467223573138
125.0,2.188569905878791,1,Kiara,98.6328125,-16.61672676888889,-0.1175169430455544,0.1481271696610891,0.0849574324448217,0.3416620769209901,10.168227725,-3.74489612886,0.15542521994134897,0.5603477855150277,0.16817435241059178,71.17807264429204
126.0,1.0965171035137835,1,Kiara,78.46467391304348,-20.140950398,-0.12827956848246,0.1067637258803999,0.07341661061882,0.275076755464,10.658282995,-0.5394572565,0.0948616600790514,0.3967244269136787,0.14573915827315023,67.82383959073037
127.0,0.9132943601404891,1,Kiara,76.171875,-19.98281521555556,-0.0596133749019594,0.1251834480489257,0.1058357380177821,0.2173786779178217,11.21619062,-0.211008789865,0.08797653958944282,0.4040663587510526,0.1386389902476614,67.71743901878278
128.0,0.8754217597732254,1,Kiara,64.19836956521739,-19.672131392222223,-0.1200932360540792,0.1206875702476831,0.1107486380792178,0.2327249769277228,10.817507535,-2.7651435704000003,0.0520209103659314,0.4184908493585714,0.1644151034803793,67.37762922746452
129.0,0.8960030459187137,1,Kiara,93.75,-19.219453024444444,-0.13361824293609,0.1217801884306,0.07316490553307,0.2389314074833,10.72351721,-0.1424385265000001,0.14076246334310852,0.43950789103837495,0.15715554687286099,69.34658833430555
130.0,0.8590030183490636,1,Kiara,109.375,-18.432687019,-0.1958722567759999,0.1018515089508435,0.0907531520743465,0.3038781491534653,11.553744905,-4.44724079325,0.187683284457478,0.4760360202923794,0.1964007731508459,71.03730411786488
131.0,1.1301981549719395,1,Kiara,125.33967391304348,-20.95726157555556,-0.3566573664682,0.11644365982244,0.0952339346214988,0.4429365933679999,11.61736251,-6.4089903790000005,0.2356241234221599,0.3588245685073745,0.3297697069424046,71.65653494607093
132.0,1.0684873224497928,1,Kiara,145.5078125,-19.981138093333332,-0.3538937683891089,0.0838591748225445,0.0916455761296732,0.4039473399376238,11.03301086,-8.1049403755,0.2961876832844575,0.40414422451658444,0.31896616792823135,73.325213703314
133.0,0.913505307203567,1,Kiara,123.3016304347826,-20.18845769111111,-0.300250294573,0.07799035240602,0.0889177079543699,0.340752461748,11.6186363,-7.951796069,0.22950401632028555,0.3945187488197323,0.27190820171595226,71.49957092597012
134.0,0.9990992857365394,1,Kiara,112.3046875,-19.900017812222224,-0.2357314304768316,0.0630383688048633,0.0816754829304227,0.2857464911019802,11.88319813,-9.125849473,0.19648093841642228,0.40791049313144895,0.21314061846461374,70.52966963362275
135.0,0.993735709500688,1,Kiara,125.33967391304348,-20.680153839,-0.194351831859901,0.0467675504848257,0.0853507069077326,0.2597815824323762,11.75545916,-4.7103534175,0.2356241234221599,0.37169018185129127,0.17722245619525404,70.59054430022073
136.0,1.003917472424854,1,Kiara,131.8359375,-20.67937417111111,-0.1645196587851599,0.05406228588171,0.087183967584235,0.2394487555161,11.58559739,-9.194975381,0.25513196480938416,0.371726380427772,0.15612284133366552,70.81233859199027
137.0,1.0492434625950502,1,Kiara,109.03532608695652,-20.828043868888887,-0.1158634888867227,0.0586457840911732,0.0973041930229505,0.2261212644868316,11.78737975,-6.6716929025,0.18666326660716562,0.364823914003193,0.12771023207977175,69.1328341568198
138.0,0.9931890735611094,1,Kiara,142.66304347826087,-20.763070337,-0.07966937453222,0.062037385173152,0.10982205939884,0.200121708192,11.971538865,-6.452103345499999,0.2876450337880913,0.36784051811992247,0.11595060315425645,71.09459171843494
139.0,1.5865703757095535,1,Kiara,111.328125,-22.162493407777777,-0.0592109055480465,0.0675647273860901,0.1237204544327524,0.2339408703333663,11.76959077,-6.652506633,0.1935483870967742,0.3028678242609272,0.11928574865730746,68.45966762232507
140.0,1.5260256994211558,1,Kiara,121.26358695652172,-22.49194396555556,-0.0293938909581,0.073706743617573,0.143703516610658,0.2142517644472999,11.53593491,-6.694693761,0.22338390921841125,0.28757202795804476,0.12940524948760035,68.95378451576556
141.0,1.001764140310747,1,Kiara,91.796875,-21.74005579,0.0225175576426732,0.0836675337763643,0.1687857791270495,0.2364419593588118,11.566334335,-6.685251613,0.1348973607038123,0.322480842359267,0.1523868034777305,67.7868117502093
142.0,1.025366138875237,1,Kiara,82.54076086956522,-21.80373492,0.1543197737586138,0.1093478825737227,0.1412926458524911,0.2802899590693069,12.295486475,-4.284212046,0.10710187428279995,0.3195243349919862,0.19405214435752782,67.52874666042005
143.0,1.2783190591529865,1,Kiara,93.75,-21.992405746666662,0.2314614666165,0.19195027874735,0.16495786483996,0.3738859632089999,12.81362727,-1.4113245182,0.14076246334310852,0.3107646881652953,0.2901240484714226,68.86541791261709
144.0,1.7688218104355906,1,Kiara,106.99728260869566,-22.697639864444444,0.2883630796336633,0.2955948920782178,0.2178567070625049,0.4884618027722772,13.566410015,-2.9884591565,0.18054315950529135,0.2780219376775334,0.40150451597280196,70.15916257001865
145.0,1.1771054922134327,1,Kiara,231.3179347826087,-19.385366695,0.314727001205,0.270130197885,0.2325496020186,0.484540542772,13.54974044,-3.6943103835,0.5538696927196226,0.43180481800125764,0.40924076557457667,79.53297779500416
146.0,1.0151028694898585,1,Kiara,315.4296875,-14.93348707,0.3353073209643564,0.2114213888831683,0.1844182349133663,0.4491571383465347,13.30017688,-5.499250522,0.8064516129032258,0.6384975744751539,0.37481080970615505,86.78948962941561
147.0,1.0762237412739173,1,Kiara,219.08967391304347,-17.74811752,0.288535174907,0.1804150320356999,0.15980350915966,0.399466931349,13.54294265,-5.409855741,0.5171490501083769,0.5078193497318549,0.3197646787517002,78.9949306289634
148.0,1.0296142331813938,1,Kiara,196.2890625,-19.653274283,0.2708321801970297,0.1230715886217227,0.1608181141437722,0.3522921872970297,13.119422775,-6.429131289,0.44868035190615835,0.4193663509921698,0.28580749725057714,76.29246322803382
149.0,1.0214209009691035,1,Kiara,173.2336956521739,-19.482849428888887,0.208211421659,0.1142992300335,0.1415430172047735,0.28758430955,13.2840734,-7.006714504,0.3794466403162055,0.4272788701604946,0.23037622301036909,74.559289032333
150.0,1.0891299709592064,1,Kiara,233.3984375,-18.58844514111111,0.1308981070320792,0.0823578312858019,0.1212943230795247,0.2206416913323762,13.158789845,-8.4335416775,0.5601173020527859,0.4688044510869692,0.1585145788994172,78.09611608529468
151.0,1.0655219355169117,1,Kiara,173.2336956521739,-20.69889689111111,0.0929271457713079,0.075755343523297,0.1006452804679307,0.178162966450099,13.62121647,-5.714349331499999,0.3794466403162055,0.37081997568402997,0.12255672328417394,73.01922630080585
152.0,1.0854284785491497,1,Kiara,109.375,-23.39488094111111,0.028000219349575,0.0530136199133199,0.11555382177633,0.1523235496397,13.473533955,-6.668077898,0.187683284457478,0.2456502896990549,0.09886840924552051,67.49241643950238
153.0,1.1257924019921255,1,Kiara,102.9211956521739,-23.60845878111111,-0.0110227260747277,0.0387821788553366,0.0998591773213366,0.1235981205016831,12.951047285,-2.648833241,0.16830294530154274,0.23573425508225174,0.07865464995717762,66.82410716667529
154.0,1.333903330547898,1,Kiara,212.97554347826087,-24.447095741111116,-0.0278059084254779,0.0333330395429658,0.085948164405927,0.1159454454194,13.05363038,-2.050466342,0.49878872880275404,0.19679785078913478,0.06840531074591324,72.884591271492
155.0,1.7261946958819636,1,Kiara,204.1015625,-23.90749400888889,-0.0532342018772901,0.021034908189491,0.0912123842880495,0.1637660561321782,12.722849635,-1.666165214,0.47214076246334313,0.22185058779594488,0.07864894728274716,72.73421388108018
156.0,1.6246412505758354,1,Kiara,165.08152173913044,-24.237558644,-0.05101280617359,-0.05531396717825,0.07092797716715,0.1257416425535999,12.920202295,-0.7157821342499999,0.3549662119087084,0.20652628098797135,0.07480271155840176,70.17606130249703
157.0,1.6095792305965493,1,Kiara,112.3046875,-24.56147523222222,-0.0547560301300396,-0.0862522013815099,0.0532780864405742,0.1482545181039604,12.281915445,1.2696360102500002,0.19648093841642228,0.19148741692900187,0.08542363022045713,66.91085681324013
158.0,1.5950567003790597,1,Kiara,113.11141304347828,-22.085657724444445,-0.0470616842086633,-0.0951582156671089,0.0460301094873396,0.1451413822485148,11.99464095,1.439513845,0.19890348081091425,0.3064351667143346,0.08586124776495002,68.3421815989099
159.0,1.5897339731674005,1,Kiara,148.4375,-20.78598944,-0.04032435027654,-0.07387968671197,0.060036620004028,0.1124446480425,12.432581565,0.98734542485,0.30498533724340177,0.36677642542784306,0.07478505561097896,71.09930429488998
160.0,1.5984485830091224,1,Kiara,138.58695652173913,-21.36880535333333,-0.0100713116471069,0.0542696960585148,0.0887634777422762,0.172565092440099,13.59571289,0.8690202994,0.2754048195843427,0.33971733178855423,0.07580929033676047,70.19117869584359
161.0,1.5940776689106249,1,Kiara,92.73097826086956,-23.579842469000003,-0.02200160462385,0.077918554446091,0.1099746658818,0.1451653281763,13.6310434,0.048066468975,0.13770240979217135,0.23706285893693532,0.10460547266732144,66.43564628442522
162.0,1.5715174534373275,1,Kiara,84.9609375,-24.447825374444445,-0.0095523116283198,0.0890093936890594,0.1058863656419524,0.1729852521179208,13.45550085,1.2220918145500002,0.11436950146627566,0.1967639752269938,0.10648665775973139,65.50045099412729
163.0,1.53448562464467,1,Kiara,58.08423913043478,-25.68816825333333,0.002508132501796,0.1068126436821,0.11530405211346,0.162635781802,13.692093325,1.4983114479,0.033660589060308554,0.13917708829262124,0.123148190391399,63.32852236384882
164.0,1.7081649825751952,1,Kiara,63.4765625,-22.527494102222224,-0.0170785802402722,-0.0405084115144257,0.0736235196151445,0.162622619890396,13.3805128,-0.24012843725,0.04985337243401759,0.2859214991118933,0.058933822419066036,64.8995960173756
165.0,1.7259956410551596,1,Kiara,73.3695652173913,-23.957489822,-0.0359534691228712,-0.2599428811763366,0.0055453140645821,0.2787296906235643,11.207962135,2.1336574059,0.07956139232436565,0.21952937219836702,0.21777410699102212,65.9677731687959
166.0,1.7361586415172705,1,Kiara,68.359375,-26.57780074333333,-0.0707967279395,-0.5117627243805,-0.066104404327333,0.55590979449,9.198271305,1.95686283,0.06451612903225806,0.09787305334652001,0.44999723382564627,66.06477709140857
167.0,1.778226200630333,1,Kiara,62.16032608695652,-25.676125581111112,-0.0467987551356831,-0.4873071319425742,-0.0915513085891326,0.5113588608148515,8.769399835,1.7048004250000002,0.04590080326405713,0.13973620788402796,0.4294937511803881,66.03080056933258
168.0,1.5904062797353469,1,Kiara,72.265625,-27.145237086,-0.0551148387857499,-0.371909131487,-0.049737924922638,0.381482595521,9.014839082,-0.14105153405,0.07624633431085044,0.07152800548614786,0.32272648606015397,64.96507464053201
169.0,1.177168909896997,1,Kiara,69.29347826086956,-28.46308781333333,-0.0453219156072772,-0.2807749850564356,-0.0204136950777792,0.2863335260386138,9.0929331085,0.7833410653499999,0.06732117812061711,0.01034256868232705,0.2381451472771931,63.37569556481781
170.0,1.0999748647580248,1,Kiara,61.141304347826086,-28.685852614444443,-0.029426335605071,-0.217374811482,-0.010211507248752,0.220764234175,8.941347429,1.870490373,0.04284074971311998,0.0,0.17923294607350132,62.29067856285041
171.0,1.1381029755959486,1,Kiara,58.59375,-27.975411089,-0.0384653381929505,-0.1709211446574257,0.0081062497890841,0.1766058282564356,8.776241319,1.471958359,0.03519061583577713,0.03298452105106757,0.1394958105000538,62.21559305332878
172.0,1.382316648491715,1,Kiara,86.61684782608695,-27.42864884,-0.0175711912719297,-0.134340986690594,0.0106843103276168,0.1376023479631683,8.716542656,1.897134481,0.11934208848654851,0.0583697079611195,0.10401369904846755,63.91938785765215
173.0,1.5959392727552166,1,Kiara,75.1953125,-25.392911064444448,-0.031343905949669,-0.1092144138231,0.0301558686728699,0.1204575567294,8.8204613915,-0.96198974205,0.08504398826979472,0.1528853480347469,0.08752171577319393,64.2356776679984
174.0,1.566399558301796,1,Kiara,85.59782608695652,-25.603130890000003,-0.021618401694893,-0.0895335734123762,0.0289403191464972,0.0985311013469307,9.009170217,-0.57936027045,0.11628203493561136,0.1431252199833198,0.06863747859614151,64.5922431672812
175.0,1.2668579720364816,1,Kiara,88.8671875,-25.613311296,-0.013995558165477,-0.0744511029395,0.03240734490722,0.0844695188184,8.955591374,0.0382031780999999,0.12609970674486803,0.14265256206005833,0.05591930956925537,64.68117935617211
176.0,1.404799846870214,1,Kiara,74.38858695652173,-26.58997823777778,-0.0150647058905145,-0.0624097004917821,0.0424817700905841,0.0793152216839604,8.8110133275,1.630314389,0.0826214458753028,0.09730767420204944,0.05105563658936798,63.228566100645594
177.0,1.7333914219338835,1,Kiara,71.33152173913044,-28.07093905,-0.004147337146425,-0.0544076604458,0.0396008819639,0.0689815450505,8.760875953,2.4484332805,0.0734412852224914,0.028549329796447667,0.04246022856406411,62.15109949051971
178.0,1.900256841800932,1,Kiara,70.3125,-28.285713818,-0.0028292616812039,-0.0494172162587128,0.0437724995261386,0.0682195418211881,8.908355669,0.45053334425,0.07038123167155426,0.018577723967379025,0.04125154313164646,61.9605696660928
179.0,1.8579616508651149,1,Kiara,97.82608695652172,-27.84225525777778,0.000911640580025,-0.0458697432609,0.0441544186945,0.0664872903023,9.088052798,0.2941232515399999,0.153002677546857,0.03916670658037509,0.03909293324725609,63.842797495879694
180.0,1.8445294402379264,1,Kiara,79.1015625,-26.376879554444443,0.0016149522968455,-0.0385042769040594,0.0454447510986138,0.0616634008225742,8.8994531265,2.228594577,0.0967741935483871,0.10720146243742318,0.03541737849275709,63.50524044815888
181.0,1.5654600345481433,1,Kiara,74.38858695652173,-26.324334123,0.0075961185778316,-0.0384063273581188,0.0440488123066732,0.0617542824743564,8.702306185,2.2848608545,0.0826214458753028,0.10964105222425667,0.034830650633212945,63.24676674926284
182.0,1.5060206957476827,1,Kiara,70.3125,-25.42484987,0.006715490449101,-0.03647444299744,0.0475575332884,0.0634405581014,8.796843063499999,-0.0028716891,0.07038123167155426,0.1514024867907705,0.03606799420640914,63.512998428571606
183.0,1.4838184373081138,1,Kiara,76.42663043478261,-26.92824990444445,0.0047752603697797,-0.0363716584118811,0.049119454037693,0.0635328782869307,9.013942804,-0.69235847505,0.0887415529771771,0.081602329693694,0.036963863592980636,63.04976992461172
184.0,1.3376565079698228,1,Kiara,76.171875,-27.082311911,0.011844722562663,-0.03357647521229,0.0441553308607,0.059195675601,8.930420282,0.4668273008,0.08797653958944282,0.07444950808008927,0.03284371091115669,62.91567457603918
185.0,1.3714443527498414,1,Kiara,73.3695652173913,-26.899606604444443,0.0064564341020742,-0.0311489167075762,0.0502572064179801,0.0633401794143564,8.641304728,1.310707142,0.07956139232436565,0.08293218654747404,0.035321618331371284,62.868987031707974
186.0,1.4852178333349897,1,Kiara,108.0163043478261,-26.89136401888889,0.01519488504512,-0.03010468507066,0.0449317416971999,0.05875822319,8.878727374499999,0.7741895514999999,0.1836032130562285,0.08331487495606939,0.032355448295407804,64.93068634696067
187.0,1.5521697324599009,1,Kiara,98.6328125,-27.147668996666667,0.0124704763171846,-0.0315813067266435,0.048510232060495,0.0616383347064356,9.0610211075,0.11799285235,0.15542521994134897,0.07141509625195192,0.0350823796663431,64.24614459118115
188.0,1.5590585210555363,1,Kiara,98.84510869565216,-25.142320840000004,0.012260440332693,-0.0270847081549703,0.0481037579437623,0.0586589065350495,8.882440188499999,2.3728423545,0.15606273109779417,0.16451980102960626,0.032688989009177466,65.35700414638458
189.0,1.5699041812548231,1,Kiara,83.984375,-25.214299712222225,0.010680633746341,-0.0266084594161,0.0498539102911999,0.059756089072,8.808297769,2.0809081415,0.11143695014662756,0.1611779515725933,0.03355284588347763,64.4312971888715
190.0,1.581092110307601,1,Kiara,66.23641304347827,-22.62073576111111,0.012620590010297,-0.023488531584693,0.0477824852846534,0.0570723138526732,8.9306217025,0.9311742892,0.0581410174678057,0.28159245674836747,0.031043443333437865,64.79027737700403
191.0,1.5690806677049232,1,Kiara,59.5703125,-25.832819191111117,0.0070730065729034,-0.025826277378164,0.04897110936634,0.061270989045,8.958624842999999,-0.0249996429,0.03812316715542522,0.13246120566005237,0.03202765260845142,62.608219031896745
192.0,1.5732426852999133,1,Kiara,54.00815217391305,-26.610621329000004,0.0057699112824724,-0.0259940982278316,0.0501298007988118,0.0585660877644554,8.754143087,1.6745418870000002,0.02142037485656,0.09634925263941253,0.03288023434768357,61.84764040358562
193.0,1.5988179452331,1,Kiara,58.08423913043478,-25.42347178875,0.012384652172418,-0.0317332925054699,0.0418860790914,0.0727534957881,8.847288231,0.9111340816,0.033660589060308554,0.15146646862231147,0.030387536505270023,62.73390969671607
194.0,1.5988694999915178,1,Kiara,51.7578125,-25.88155402555556,-0.0245419607675275,-0.2658898786957425,-0.0201745960588118,0.3142864032028713,7.274354292,2.3029173765,0.01466275659824047,0.1301985350318858,0.22254225474214204,63.63597559028457
195.0,1.622407407047495,1,Kiara,54.00815217391305,-23.394760924,-0.0402539016859306,-0.5975028173643564,-0.1250316375443564,0.6150305534059406,4.726992057,2.14020708905,0.02142037485656,0.2456558618774625,0.5317171743744572,67.63001523465641
196.0,1.6104193875124106,1,Kiara,72.265625,-24.28158082888889,-0.05540141749496,-0.6819795018729999,-0.1529852814849,0.7041841030170001,0.5957850866000001,-55.11159259,0.07624633431085044,0.20448241019470195,0.6120244114484068,68.87491090014069
197.0,1.6365388373026597,1,Kiara,65.21739130434783,-23.307344538888888,-0.0661541574370673,-0.7761625724851485,-0.1830461076077227,0.8095801093336634,0.36733527965,-75.016562545,0.05508096391686855,0.24971444726645972,0.7010710966998536,69.70676141913371
198.0,1.6203423186875414,1,Kiara,91.796875,-23.358864999,-0.061141557747485,-0.772630383021,-0.1766350293153,0.796550108494,0.4142504778,-116.728909,0.1348973607038123,0.2473224450534238,0.696329719747891,71.23645431270046
199.0,1.6268052681450889,1,Kiara,86.61684782608695,-23.53167561777778,-0.0632700319777227,-0.7432246219722772,-0.1656202007825742,0.7649270618653465,1.13941405205,-77.88577961,0.11934208848654851,0.23929915912660846,0.668610684141917,70.6073171523856
200.0,1.605648817087078,1,Kiara,103.515625,-24.353636023333333,-0.05164660475842,-0.715862467666,-0.1577266366327,0.736351195993,2.6330461555,-3.3088500615,0.17008797653958943,0.2011370172343107,0.6423400673994303,70.95412427679896
201.0,1.6353057473482913,1,Kiara,128.39673913043478,-22.723213477,-0.0558108927498009,-0.7127623102247526,-0.1545652927703861,0.7340177510306931,2.3355932900000003,-4.169008709,0.24480428407497132,0.2768346008855814,0.6392944192302535,73.33245624596843
202.0,1.610305183412453,1,Kiara,111.0733695652174,-20.44616756222222,-0.05643140425593,-0.716410775692,-0.15115358855556,0.7400888912400001,2.098754087,2.79756027115,0.19278337370903995,0.38255374344731324,0.6418948163103234,73.58147092603114
203.0,1.598570445867866,1,Kiara,68.359375,-22.503850588888888,-0.0457028926439861,-0.6188341432059407,-0.1130725242076703,0.6354783984039604,2.5491698245,0.3457297440000002,0.06451612903225806,0.2870192248716267,0.5487647896690513,69.12467159645709
204.0,1.613392869685424,1,Kiara,79.4836956521739,-23.77841205777777,-0.0284016787795821,-0.4570267467574257,-0.070290039338298,0.4684246463415841,3.089596857,-4.4453076445,0.0979217136299885,0.2278436304057135,0.39824783914940265,67.87854055066356
205.0,1.6199121573569644,1,Kiara,68.359375,-24.644909113,-0.0204182634520399,-0.349174911452,-0.033603866493345,0.355550214071,3.674503074,5.309620532,0.06451612903225806,0.18761373204668128,0.2976819924572324,65.9231433048632
206.0,1.621833829695985,1,Kiara,61.141304347826086,-24.391909026666667,-0.0082218303545099,-0.2564550025653465,-0.001225541664495,0.2639264312673267,3.9878424595,-2.22856691,0.04284074971311998,0.19936007059067784,0.2124834429822493,64.94900338520853
207.0,1.695308530167656,1,Kiara,76.171875,-23.440368684444444,-0.01743964867587,-0.186232353802,0.026513760835301,0.201705627217,4.2172489675,-5.5997715865,0.08797653958944282,0.24353837566558784,0.1516596724095626,65.8952686790524
208.0,1.2705672793792195,1,Kiara,66.23641304347827,-22.82629210888889,-0.0044249519066247,-0.1297838318032673,0.0285927050723772,0.1495271064387128,4.896111181,-4.072826263,0.0581410174678057,0.27204884557471715,0.10137478672982676,65.23840479009134
209.0,1.1987747818508097,1,Kiara,72.35054347826087,-22.301861779,-0.004015381659909,-0.07738366577512,0.03849121491908,0.1169552981793,4.9066879685,-0.0359147235,0.07650133877342855,0.2963972016835707,0.05962718647857661,65.56381068750004
210.0,1.505578652450407,1,Kiara,69.3359375,-21.58731353111111,0.039534886111593,-0.0520199798352475,0.0713141531084475,0.1354297680597029,5.1001369695,-5.3860432505,0.06744868035190615,0.3295723904645898,0.06879390331638155,65.85419351914426
211.0,1.5037152987342983,1,Kiara,75.40760869565217,-20.71928253333333,0.1282917898976782,-0.0337675401329861,0.089301873150891,0.2089742274631683,5.3700459235,-8.528838461,0.08568149942623995,0.3698735070149897,0.12559588431131352,67.15687914719518
212.0,1.4551389429057695,1,Kiara,82.03125,-20.40257104,0.19878489762576,-0.00925646104985,0.09665595993066,0.2647362942192,5.327547698,-4.6231716335,0.10557184750733138,0.38457785148927004,0.18070399624930747,68.17200313801233
213.0,1.5222571964872391,1,Kiara,78.46467391304348,-18.626077267,0.2652605589041584,-0.0017756778177227,0.0894558864938118,0.3127643631519802,5.573937190500001,1.7325994729999998,0.0948616600790514,0.46705725922933955,0.23347417355433292,69.36971370076776
214.0,1.5154378283489187,1,Kiara,63.4765625,-19.927814256666668,0.12736223167011,0.01625065483347,0.07810334693016,0.2211462296223,5.757573682,3.789063227,0.04985337243401759,0.4066199542565584,0.11693688983716158,66.81200201845634
215.0,1.5104737232053682,1,Kiara,77.44565217391305,-19.980947976666663,-0.0840171700892049,0.044113864028391,0.1007313908511188,0.177569341370594,5.7308579785,-0.968599963,0.09180160652811425,0.4041530512911596,0.10624623010192635,67.5358385868716
216.0,1.5063377117613264,1,Kiara,69.3359375,-19.279452605555555,-0.2375441781458999,0.079780895553039,0.081854745069211,0.293041950108,5.8958415525,-4.8216101215,0.06744868035190615,0.4367222185018821,0.21879698859011085,68.34001613778159
217.0,1.5022684952686909,1,Kiara,84.5788043478261,-19.95478047888889,-0.3472532791544554,0.1026927467117297,0.0873723788232891,0.3921397241376237,6.633751606000001,-21.55960368,0.11322198138467425,0.40536796110483464,0.31667282081650905,69.66223772748357
218.0,1.516776679490064,1,Kiara,82.54076086956522,-18.047473119,-0.1551130733951199,0.3890636372177,0.2141965486379999,0.500045427397,8.5928547375,-12.45649033,0.10710187428279995,0.49392080818645007,0.40468761787545965,71.30658812689708
219.0,1.5289335987400132,1,Kiara,84.9609375,-18.18636584333333,0.0474358640789901,0.5251326657960396,0.2255828994168812,0.6007176190277228,9.0570829595,-5.568531578,0.11436950146627566,0.4874722690378595,0.497320006547654,72.11561731016106
220.0,1.4252660583105543,1,Kiara,78.46467391304348,-16.93054263888889,0.0839590894857604,0.4764553480980198,0.2046896631822475,0.5400912233485149,9.1933775095,-8.96912132,0.0948616600790514,0.5457778796192558,0.45401249735881666,72.07866773588263
221.0,1.389093999844078,1,Kiara,86.9140625,-17.091581159999997,0.054289219428631,0.439878373683,0.18285620949493,0.512930049281,9.341561605,-2.41097163715,0.12023460410557185,0.5383011509943361,0.4127927744681654,72.1666480897888
222.0,1.432843588527077,1,Kiara,88.65489130434783,-17.11491467,0.0782952895148703,0.3818536310435644,0.165774636747495,0.4456897820960396,9.1988614995,-3.6716176765,0.1254621955884228,0.5372178181312846,0.3625768884453604,71.85647283690676
223.0,1.4323173446197066,1,Kiara,93.75,-17.70077578888889,0.0937470357385999,0.342316463699,0.1697952780433,0.434219259688,9.112667963,-2.0857448845000004,0.14076246334310852,0.510017341080195,0.3354886053722473,71.6193662028025
224.0,1.3489582275746046,1,Kiara,76.42663043478261,-16.996014942222224,0.0280462561743188,0.3058890860158416,0.1491467474918515,0.3651416209940594,9.324830907,-7.316264051,0.0887415529771771,0.5427381184422762,0.2887702388661949,70.59785039178041
225.0,1.3947234965276123,1,Kiara,88.65489130434783,-18.654624308,0.07747560940198,0.269987859113,0.153703150002619,0.362222722414,9.342603274,-3.49832440255,0.1254621955884228,0.4657318715076391,0.2696454428325628,70.25518991252062
226.0,1.4204317547431025,1,Kiara,84.9609375,-18.450707762222223,0.0355575161296237,0.2498911990514851,0.1394462572551287,0.3708428383930693,9.3594492285,-8.2943718939,0.11436950146627566,0.4751993496264897,0.2410441583858587,69.91813549193026
227.0,1.351874398009317,1,Kiara,88.65489130434783,-18.19493034555556,0.0369453799038188,0.2175085922120792,0.1307830688569406,0.3171574852118811,9.6422914355,-0.97041525965,0.1254621955884228,0.48707463461796224,0.21237989521195708,70.05317868887965
228.0,1.2828004986846353,1,Kiara,82.03125,-18.014317381,0.0496810757324424,0.2013450761489,0.0930212955931,0.289439481428,9.346436139,-5.5758434445,0.10557184750733138,0.4954601694130344,0.18614962336595808,69.54615597003071
229.0,1.1290478834797535,1,Kiara,72.35054347826087,-19.10026566555556,0.0354420732396983,0.2086187315818514,0.1331470286728713,0.3035177877217822,8.683570691,-9.30499733,0.07650133877342855,0.44504154554404607,0.20657154799643665,68.52309770596861
230.0,1.4476648502026783,1,Kiara,109.375,-19.272741083333333,0.04822065011744,0.398550294381,0.21107209480537,0.47997756032,11.58635795,-3.1657306955,0.187683284457478,0.437033822396214,0.38952121640903764,72.11424128917643
231.0,1.7126704767069263,1,Kiara,113.11141304347828,-19.521713832222225,0.0799793380978956,0.4589854076940594,0.1821577013385544,0.5206596098732673,11.40842402,-3.182595627,0.19890348081091425,0.4254744658795318,0.4314796489348824,72.53560039825173
232.0,1.7416390591895952,1,Kiara,86.9140625,-20.319727771,0.05109432417927,0.423222612052,0.1960415346085,0.497090537793,11.61045772,-8.198865915999999,0.12023460410557185,0.38842411532999976,0.4035871918616257,70.29447900096444
233.0,1.6774528398524315,1,Kiara,79.4836956521739,-20.097002118888888,0.0593883180648613,0.3751701304019802,0.1728941544219009,0.437159532530693,11.823809525,-4.392545800500001,0.0979217136299885,0.398764866394735,0.35696390270835726,69.59932389100345
234.0,1.5322115016131186,1,Kiara,98.84510869565216,-21.68346538111111,0.0283689106687891,0.3399352662396039,0.1596891499491881,0.4040189866831683,11.00673444,-4.5211876285,0.15606273109779417,0.32510823316685866,0.3203882148508262,69.5856591387648
235.0,1.4234624675591323,1,Kiara,81.0546875,-21.086962462,0.046650717302509,0.306549793999,0.13484337690956,0.381115763024,11.80488922,-2.2693883145,0.10263929618768329,0.3528027898443207,0.28577114995223185,68.57258860150337
236.0,1.4165008095448726,1,Kiara,78.46467391304348,-21.00489247111111,0.0575973291168019,0.296203810109901,0.1660394171995445,0.3753149293356436,12.155197685,-3.8877210265,0.0948616600790514,0.35661315177444863,0.29142220440103495,68.50796865808269
237.0,1.409293251341732,1,Kiara,77.1484375,-20.788319386666664,0.06152955686863,0.266594696481,0.12954647780645,0.338185346296,11.75191911,-4.4585806945,0.09090909090909091,0.36666825019860605,0.25394726953250596,68.24977897682514
238.0,1.4241576311534716,1,Kiara,76.42663043478261,-21.408360037,0.0474575952046633,0.2283042948934653,0.138063049181901,0.3177411871237623,11.506674445,-3.3577411788,0.0887415529771771,0.3378808790343948,0.2254278287061701,67.63282423760563
239.0,1.3985565811970164,1,Kiara,90.8203125,-21.303438994444445,0.0384153379752889,0.21038818984,0.1498949929262317,0.30194757074,11.873495575,-3.807852015,0.13196480938416422,0.342752174155705,0.21659618077690573,68.485091723767
240.0,1.3889060796835448,1,Kiara,89.67391304347827,-17.784349826666666,0.0229176276836475,0.1933106457427723,0.1084157958723564,0.2703195138633663,12.010474275,-2.2127577659,0.12852224913935995,0.5061371489606827,0.18213039603876496,70.10113393862551
241.0,1.3993633531267755,1,Kiara,86.61684782608695,-16.894952249,0.0070196839891199,0.17616783386029,0.1004126673430799,0.264970108616,12.25550544,-3.584725666,0.11934208848654851,0.5474302773500492,0.1642246098345,70.26980197660757
242.0,1.456463364397849,1,Kiara,92.7734375,-17.159944441111108,0.0256058520622673,0.144395198740891,0.1298649691595802,0.2672524553418812,11.404093815,-1.795335101,0.1378299120234604,0.535127166923629,0.15792161849594402,70.44149719152031
243.0,1.4124098903275617,1,Kiara,189.53804347826087,-17.408025754444445,0.0338643919669029,0.1294104986619861,0.0917982000348613,0.2058359580998019,12.281967995,-3.121609573,0.4284074971311998,0.5236091981549807,0.1276797699693572,75.87289848023862
244.0,1.417939141538669,1,Kiara,113.28125,-17.825898314444444,0.0121920947747499,0.1280908163958899,0.10237144951002,0.267558981872,12.6623343,-6.284238423,0.19941348973607037,0.5042081274709989,0.12964714476111164,71.07594448246229
245.0,1.383711032977908,1,Kiara,222.1467391304348,-16.415618754,0.0112363591274643,-0.0001681942893663,0.0769998929863366,0.235553615500396,11.243075655,-4.4442265865,0.5263292107611884,0.5696848686007766,0.05180260183291643,77.77722345309641
246.0,1.420066745014406,1,Kiara,221.6796875,-15.429436893333332,-0.01251552217483,-0.1009046813097599,0.02802145369228,0.344423561342,10.342494042,-5.4021516595,0.5249266862170088,0.6154715170135242,0.07665678478296648,78.4974462067662
247.0,1.393347083316358,1,Kiara,303.6684782608696,-19.87156242,0.0111976316378746,-0.1851511486630395,0.0215363662699802,0.3181712973808911,10.737541025,-5.6498314575,0.7711334948361598,0.40923162576538835,0.1496990165734619,81.53104153849554
248.0,1.396887934836173,1,Kiara,379.8828125,-18.617885563,-0.0053419816846119,-0.195561501592,0.0110812747307419,0.217206436733,9.7471279915,-4.828018583,1.0,0.46743758529891016,0.15797916824402458,86.87308436953913
249.0,1.4269918963985402,1,Kiara,366.8478260869565,-18.612400618888888,-0.0008585243126534,-0.1589741483688812,0.0085901329366237,0.1915533751126732,10.097266954999998,-4.006420993,0.9608568149942623,0.4676922413796957,0.12495783319191944,85.82910586197696
250.0,1.4023229884256387,1,Kiara,262.9076086956522,-22.846944157777777,-0.01651612303608,-0.1384604224817821,0.0243529874226343,0.1710485906750495,10.100188175,-4.970044446499999,0.648731352798674,0.2710900081237432,0.10908895138767714,77.10041876455982
251.0,1.4127412505716568,1,Kiara,250.9765625,-20.62657323,0.002303730971489,-0.11370174838178,0.030510543231408,0.1640470234291,10.39611876,-3.998324783,0.6129032258064516,0.37417783306844643,0.08769239202248968,77.44973764913031
252.0,1.4142245099377233,1,Kiara,150.81521739130434,-25.107166811,0.0144714780920792,-0.0756199066665742,0.0418716391893564,0.1665340621052475,9.92350282,-2.828038104,0.3121254621955884,0.16615193930988922,0.06063402635526781,68.72140472647258
253.0,1.3978358239552624,1,Kiara,92.7734375,-26.28272381333333,-5.454118383999951e-05,-0.04816084899765,0.0412494108623359,0.1023169692097,10.0793288715,-3.3393253335,0.1378299120234604,0.11157294399294669,0.03885606095908411,64.40632205605723
254.0,1.403737740286917,1,Kiara,117.1875,-25.45091039555556,0.0220104649219485,-0.0278527370366029,0.0539499952003663,0.0987640676086138,10.75513703,-2.900907151,0.21114369501466276,0.15019254350479558,0.03990835871365259,66.34445129206003
255.0,1.3944105219902208,1,Kiara,176.7578125,-24.251841968,0.025575539908543,0.0020982060944839,0.0584116904683934,0.08842174862825,10.264752995,-0.7717928862,0.39002932551319647,0.2058631319682649,0.03920545736421437,70.58458775279682
256.0,1.389882488637871,1,Kiara,195.65217391304347,-22.994725116666665,0.0318870254654752,0.0146431792634158,0.0641514123550891,0.1013316027595049,10.940624495,-1.2817216335,0.4467678184368226,0.26422880424581946,0.047582688395530016,72.48676352685052
257.0,1.381805594923848,1,Kiara,198.7092391304348,-25.318181034444443,0.039682403204933,0.02381207530776,0.069210790263721,0.1185792662907,10.83688202,-1.849305023,0.45594797908963414,0.1563549287945991,0.05669390502535737,71.44876996753072
258.0,1.370992219513958,1,Kiara,105.46875,-25.353187577777778,0.0345030894682495,0.009041040102594,0.0637406657170099,0.1472717818170297,10.726168125,-0.58437076455,0.17595307917888564,0.15472963800830794,0.047511770251475925,65.75591140168922
259.0,1.3687281740727022,1,Kiara,142.66304347826087,-24.545482322,0.0006611369127009,0.0180472313789481,0.0700786538105049,0.0963715169192673,10.798139745,-1.9907989805,0.2876450337880913,0.19222993895931625,0.04690652509004719,68.434912143994
260.0,1.366643845931989,1,Kiara,161.1328125,-24.47925153888889,0.0141864839643395,0.015340512327194,0.08208697309374,0.1064464990539,11.22396277,-2.728043358,0.34310850439882695,0.19530491498692182,0.05799432917035694,69.66978370118245
261.0,1.401993239706394,1,Kiara,99.8641304347826,-23.951206166666665,-0.0137394555395871,0.0224643222917851,0.0552336616618623,0.088891359500396,10.884111345,-1.8852174555,0.1591227846487313,0.21982111100331703,0.036859338594650584,66.11518373377163
262.0,1.549781758776782,1,Kiara,101.5625,-24.961153325,0.0035028150579499,0.05199157924265,0.07242174196217,0.1355119919103,10.907172705,-0.54226107855,0.16422287390029325,0.17293108260348222,0.06205326825543554,65.85605661529114
263.0,1.6129272604986324,1,Kiara,170.1766304347826,-25.06850719,0.0020048976270445,0.0616223642204653,0.0874811312456839,0.1225710140780198,11.13204937,-2.022773203,0.37026647966339404,0.1679468359157754,0.07805551558754983,70.04513574895759
264.0,1.6335286989600897,1,Kiara,129.8828125,-23.11189019888889,0.0142448822541567,0.0983224719403,0.096091808868124,0.1586031772029,11.59759047,-2.6955179525,0.24926686217008798,0.25878904040516926,0.10609068321842861,68.93953119401122
265.0,1.6585353993627068,1,Kiara,143.6820652173913,-20.775503874444446,0.0144420687858257,0.159363596089802,0.106404614204792,0.2050710657940594,12.10047925,-2.6013764615,0.29070508733902845,0.36726325135990434,0.15457873262029698,71.45789062406179
266.0,1.6009052849866237,1,Kiara,173.2336956521739,-21.82511811,0.0340500258235841,0.2272028560407327,0.130651251772796,0.3059766774243564,12.235215145000002,-1.343672459,0.3794466403162055,0.31853155197546323,0.21940627479005353,73.1665616283501
267.0,1.5927086436188385,1,Kiara,85.9375,-24.386639310000003,0.0244104044402389,0.237442435132,0.1374634733149,0.282632415777,12.46799741,-0.6338640752,0.11730205278592376,0.19960473404868165,0.22943214854229782,66.57675505264103
268.0,1.590547100922708,1,Kiara,78.46467391304348,-24.057159604444443,0.0290605823702752,0.2196859896675247,0.1351756767221881,0.2802073692071287,13.109504435,-2.4896630120000003,0.0948616600790514,0.21490188363041285,0.21516615838976944,66.19738507226414
269.0,1.6092189515818305,1,Kiara,77.1484375,-24.89732402,0.0264615318603779,0.233403356902,0.1359120842073,0.281539617063,13.615331675,-2.31073889,0.09090909090909091,0.17589456232565992,0.22578072380238817,65.73516235650884
270.0,1.5931387065418088,1,Kiara,63.17934782608695,-24.81676352888889,0.020608421108891,0.124385471004099,0.1130803629503168,0.2414201401012871,13.019712045,-2.0305500275,0.04896085681499425,0.1796348408985887,0.13408419031707955,64.20750874961959
271.0,1.6508133855275204,1,Kiara,85.9375,-23.64805876222222,0.01807875053431,0.02480052518606,0.069104891341355,0.1072057182305,12.32427753,-1.5656076505,0.11730205278592376,0.23389569924929401,0.04982332248967706,65.55137602662742
272.0,1.9015244086219432,1,Kiara,92.73097826086956,-24.397446604,-0.0005315216739752,-0.1930828084027029,0.0193565879585802,0.2386162177962376,11.226750285,-2.2164606730000003,0.13770240979217135,0.19910297084413792,0.15627445226240524,66.39347946407233
273.0,2.0059039295390724,1,Kiara,79.4836956521739,-25.472173598888887,-0.0419769181402299,-0.511791328944,-0.09280461532536,0.5570003387060001,8.6532791955,-1.627402392245,0.0979217136299885,0.14920533125319968,0.4508782610980127,67.35592433642226
274.0,1.578870603622237,1,Kiara,65.4296875,-15.473168365555557,-0.0365002162861188,-0.4059532386386138,-0.0548119095248772,0.4215505775544554,8.821699264500001,-2.297342246,0.05571847507331378,0.6134411434860115,0.3514998262052571,71.28766183294047
275.0,1.390435423466924,1,Kiara,62.16032608695652,-22.04414036555556,-0.0258315169574207,-0.3377765697455445,-0.0401002802054146,0.346407793470297,8.9112279535,-1.08368085075,0.04590080326405713,0.3083627429457471,0.28846585453015655,66.92609581687137
276.0,1.3349071521098006,1,Kiara,85.9375,-25.449464220000003,-0.016356341792837,-0.285338071971,-0.019199274122483,0.292102533038,8.639736544,-1.175703006,0.11730205278592376,0.15025968683235652,0.2393222278029232,66.06373512013013
277.0,1.5801730860922063,1,Kiara,90.6929347826087,-27.441186257777776,-0.0013756019877168,-0.2396221191960396,-0.021396629396493,0.2539183546198019,8.9441313445,-1.3835082251,0.1315823026902971,0.05778761822423603,0.1980935500923152,64.9098458732353
278.0,1.860915137961564,1,Kiara,52.734375,-27.88338291888889,-0.0160252785637205,-0.2023308874769999,-0.01766741472073,0.219644789275,9.026558523,-0.8983403998499999,0.017595307917888565,0.03725722331522952,0.16497535524111387,62.11879568006944
279.0,1.8478715226354507,1,Kiara,50.95108695652174,-26.145380262222226,-0.0112353904115881,-0.1834173623762376,0.0182800113509802,0.1971081251574257,8.768456427499999,-0.8107366608500001,0.012240214203748575,0.11794955781773485,0.14784088081805744,62.84292602443225
280.0,1.4850457402078985,1,Kiara,46.875,-26.139049426666663,-0.0009476008651759,-0.1486331257848999,0.006288773989614,0.155983123703,8.555816201999999,-1.16224913145,0.0,0.11824348711546652,0.11557511052008931,62.343522729546315
281.0,1.3541286665112402,1,Kiara,46.875,-25.576559089,-0.0023402121967,-0.1277288510184158,0.0174994717435195,0.1348046118440594,8.66489632,-3.6546043075,0.0,0.1443589008677544,0.09775577906086935,62.514353042900005
282.0,1.3785384266959353,1,Kiara,46.875,-24.286913744444444,-0.0053386745146673,-0.1109883189231683,0.0247470550190495,0.1191162540585148,9.02702189,-4.8126842085,0.0,0.20423481252606113,0.08418019820230473,63.12425933593117
283.0,1.5127762609964408,1,Kiara,46.875,-24.93744419555556,-0.0068909286631571,-0.0890907884634,0.025208592134854,0.0995455859199,9.096969927,-4.091288756,0.0,0.1740318548011285,0.06531059018671559,62.610866979107264
284.0,1.4535582615050535,1,Kiara,79.4836956521739,-27.788242625555554,-0.0080356233124306,-0.0787447368698019,0.0366766659696534,0.0908227115378217,8.517498406,-4.147378877,0.0979217136299885,0.04167441585798667,0.06027145819885439,62.94069892848645
285.0,1.4405433625000663,1,Kiara,68.359375,-28.128793404,-0.0089416045684116,-0.0683503227799,0.029987018627166,0.0783984602244,8.4346399735,-4.7131209435,0.06451612903225806,0.025863256292769643,0.04942721499568058,61.996099376123844
286.0,1.6457129690732664,1,Kiara,51.97010869565217,-27.72510050111111,-0.0124112084004926,-0.0586378064073267,0.0374042853806019,0.07470132565,8.855054155000001,-4.8689262745,0.015300267754685702,0.04460599102406941,0.045362776177960945,61.20417945680624
287.0,1.747668250004368,1,Kiara,53.7109375,-26.40734741,-0.019648349786803,-0.0497313760404,0.04253038963163,0.0713832935901,9.0791842455,-4.5514210335000005,0.020527859237536656,0.10578689475386265,0.043271177381758355,62.026169340851155
288.0,1.7372077900497862,1,Kiara,46.875,-25.189526156666663,-0.0204473469620716,-0.0480469299545247,0.0397420485129881,0.068379264720693,8.7224429475,-2.7596349725,0.0,0.1623281431583414,0.040841611399289414,62.274670609094414
289.0,1.5282309837892465,1,Kiara,46.875,-24.339801199,-0.021067636584968,-0.0401776016148,0.0432737695456499,0.0652030464536,8.473661862499998,-4.2093181555,0.0,0.20177934322190721,0.03821261209203441,62.727053015399164
290.0,1.5217615807494824,1,Kiara,52.734375,-24.83300433444445,-0.0209791968163079,-0.0383286925450495,0.0468497443912475,0.06664981812099,8.894090365,-4.870829797,0.017595307917888565,0.17888080953422203,0.0394421882887353,62.81401337907832
291.0,1.9352075731590013,1,Kiara,84.5788043478261,-27.67970546444445,-0.0193663094986435,-0.0329472307757029,0.0399632469435544,0.0591532140614851,9.143004006,-4.159339647,0.11322198138467425,0.04671360085389852,0.0315620486201631,63.07749922690157
292.0,2.3281976921859933,1,Kiara,72.265625,-27.393004864,-0.0195019322174025,-0.027431118803996,0.04600419706117,0.0614309850012999,8.8642265365,-3.315558079,0.07624633431085044,0.060024593598583094,0.03309509499908048,62.50998256939265
293.0,2.199591614529252,1,Kiara,69.29347826086956,-21.26980060888889,-0.0119800276261415,-0.0228135342200544,0.0512016127959108,0.0613268092418118,8.434317809,-4.161060499,0.06732117812061711,0.34431394383940567,0.03338131606127897,65.74524141697545
294.0,1.9864840719253,1,Kiara,74.21875,-13.248563167666669,-0.003763500420813,-0.019281430426259,0.0376903919561939,0.0611671014322999,8.793845927,-5.6192872435000005,0.08211143695014662,0.7167255579692112,0.020063876255690723,70.40344644467899
295.0,1.769946071455927,1,Kiara,80.50271739130434,-24.25451344444444,-0.0112470268593356,-0.0213008768989694,0.0541591113180495,0.0839528131328712,8.994525831,-4.728491541,0.10098176718092565,0.2057391001262861,0.03513773915808042,64.76960645839858
296.0,1.791098926572173,1,Kiara,73.2421875,-24.94702287,-0.008649403670287,-0.0199661510737399,0.04041651007472,0.0513643424649,8.762062417500001,-3.087624052,0.07917888563049853,0.17358713419072172,0.023118501216106122,63.85157133262748
297.0,2.082144963345596,1,Kiara,86.61684782608695,-25.38100249,-0.006658380956191,-0.0190755713545029,0.0505417689827376,0.0603894199658712,8.4299544305,-2.846804333,0.11934208848654851,0.15343824170774184,0.030784266544010817,64.47437480257597
298.0,2.326643433085121,1,Kiara,119.22554347826087,-27.27935547888889,-0.0183855928512237,-0.1235268305400663,0.0123978050336653,0.1481134210182178,8.1276470735,-3.9237620685,0.21726380211653706,0.06530112995151276,0.0946622925864741,65.88618794244069
299.0,2.3335764033540927,1,Kiara,73.2421875,-26.279520875000003,-0.038627235502739,-0.35362567751198,-0.0501146961097695,0.4023928781947999,6.468234226,-2.29538476,0.07917888563049853,0.11172165065365999,0.3047464010070035,65.36220872850991
300.0,2.261422798058357,1,Kiara,80.50271739130434,-24.699197852222223,-0.0597827629658613,-0.5712649423524753,-0.1302823677306297,0.5907467858128713,4.8214568115,-1.5680812825,0.10098176718092565,0.18509320361812256,0.511228585695625,68.33058247260098
301.0,2.184286521179202,1,Kiara,74.21875,-24.29899109444445,-0.07079204219664,-0.6659511786500001,-0.14202664041204,0.6883920745100001,3.4848273275,-7.849595390999999,0.08211143695014662,0.20367408290786057,0.5971739318985076,68.86370918908531
302.0,2.101647655992736,1,Kiara,70.3125,-21.664934565,-0.0713518260388802,-0.690402861508911,-0.1643742980710198,0.726916175590099,3.794132322,-7.367588978,0.07038123167155426,0.3259685855987185,0.6229519254337331,70.30286306408557
303.0,2.0689043950607657,1,Kiara,98.6328125,-21.875271622222225,-0.07631395348695,-0.675812309039,-0.1481696140753,0.6986591976290001,3.0804775725,-9.7060121545,0.15542521994134897,0.3162030146920547,0.6074766573062483,71.76275383358163
304.0,2.0449760645187087,1,Kiara,96.8070652173913,-23.074171025555557,-0.0681953666026435,-0.6288968424069307,-0.1300768467834257,0.649501173619802,2.6621092465,-7.066965497,0.1499426239959199,0.26054027371893684,0.5623196511722659,70.62389297392377
305.0,2.0697070632223333,1,Kiara,133.49184782608697,-24.69742466888889,-0.0670738507509999,-0.5831217816609999,-0.11939597455935,0.60554629771,3.4229899,-4.463033154,0.260104551829657,0.1851755293281086,0.5202275499529485,71.58601778815404
306.0,2.056971805398964,1,Kiara,146.484375,-21.830717628,-0.0602675149613514,-0.610167637530693,-0.1272108890214554,0.6317944718069307,2.5265058445,-4.4693839995,0.2991202346041056,0.3182715764352788,0.5446813772687665,74.1591146274556
307.0,1.9913569017098225,1,Kiara,165.08152173913044,-21.291280456666662,-0.0621491590904825,-0.5890574782762377,-0.1081988294355346,0.6115538814148515,2.240153766,-4.066740310949999,0.3549662119087084,0.3433166731762692,0.5230508094703136,75.40353079205191
308.0,1.933670978935966,1,Kiara,190.4296875,-21.153902437777777,-0.0624673676646949,-0.5233004035150001,-0.0951206331239949,0.543920990237,2.42296242,-14.373431425,0.4310850439882698,0.3496948872779289,0.46319382021101585,76.52359008878867
309.0,1.916605315015474,1,Kiara,86.61684782608695,-20.731976919,-0.0410468309858198,-0.3961173781217821,-0.049417297311495,0.407966690950495,3.1546733365,-6.2485311555,0.11934208848654851,0.36928412954160694,0.3425415125695223,69.55858342478643
310.0,1.9479066497413788,1,Kiara,88.8671875,-22.32329917555556,-0.029873086908967,-0.2710303474959999,-0.0120704423550443,0.280696876469,3.1997566505000004,-5.594681831,0.12609970674486803,0.2954019019542585,0.227177833800182,67.88423962874992
311.0,1.9473825085565144,1,Kiara,61.141304347826086,-21.885061983333333,-0.0307300215982802,-0.1874804767518812,0.0198140196933069,0.2096651530528712,3.903152211,-4.2391201684,0.04284074971311998,0.31574846585080435,0.1535433425063925,65.87414332452319
312.0,1.9394970690411,1,Kiara,55.6640625,-20.91439546555556,-0.011648512389055,-0.1200533974767,0.05079007290549,0.1527774156453999,4.373793468000001,-5.283569967,0.026392961876832845,0.3608147648247812,0.09949156206372284,65.65356891194381
313.0,1.9614298193276432,1,Kiara,74.38858695652173,-19.861908855000003,-0.010975223960998,-0.0603980122597613,0.074448110177297,0.1551099541573267,4.5932711325,-6.1673437965,0.0826214458753028,0.40967982340946757,0.06858970046813359,67.11730440216473
314.0,1.9414921825235123,1,Kiara,76.42663043478261,-18.313441933333333,0.0243284893589188,-0.0110333514713424,0.056954254078792,0.1697491649629703,4.3745292955,0.4486542530000001,0.0887415529771771,0.4815723549484201,0.03840362348516655,67.86092830680592
315.0,1.788307229737138,1,Kiara,96.6796875,-15.026912911111111,-0.15357033762153,-0.019724959271356,0.1357191027041,0.2952256375848,5.2414086955000005,-20.139196865,0.1495601173020528,0.6341599808626249,0.16691909249088888,71.93647485631966
316.0,1.7279162933675558,1,Kiara,72.35054347826087,-15.633552305555554,-0.3108831415237624,0.0923810863849406,0.0614073430024257,0.4548712735471287,6.472274249,-32.163028905,0.07650133877342855,0.6059948058836682,0.27853687768445307,71.0302594675482
317.0,1.69509304575146,1,Kiara,96.6796875,-13.7013712169,-0.3223133549396,0.0781278672244,0.09730196031437,0.401875375628,5.423152874,-35.932000965,0.1495601173020528,0.695702495412886,0.2925088886930692,73.67970340054023
318.0,1.71849233241217,1,Kiara,105.97826086956522,-13.69460005822222,-0.2356895478974851,0.1245253323517029,0.0609924917291287,0.4817612264808911,6.352541712,-38.82056833,0.1774831059543542,0.6960168681204887,0.22763950766519198,73.72298059785449
319.0,1.6261950840625543,1,Kiara,97.65625,-19.34945713333333,0.0099296615916399,0.089246751245311,0.18605114565843,0.393674687734,5.903364941,-10.6163654975,0.15249266862170088,0.43347203430310294,0.16754230806449277,69.59185624858719
320.0,1.5872703843216205,1,Kiara,95.78804347826087,-18.86305278,0.2661633038687128,0.082405753850198,0.1290449868978237,0.358810132849802,5.6053625265,13.24796063,0.1468825704449828,0.4560549127769047,0.25784634066677203,70.4730810875567
321.0,1.5754645654515105,1,Kiara,83.55978260869566,-17.838474266666665,0.410543399634,0.06838415769501,0.05037696712172,0.446801944184,5.9403615035,15.666283855,0.1101619278337371,0.5036242486492316,0.35867013835460254,71.11609064730234
322.0,1.6060251553172524,1,Kiara,111.328125,-18.13136487333333,0.2615023563885148,0.5078877679238614,0.2145988816556752,0.6421001634415842,8.963888057999998,5.905175005,0.1935483870967742,0.490025865059234,0.5303368074501996,73.99397258224789
323.0,1.676443322979619,1,Kiara,98.84510869565216,-17.774979598,0.0362487371659118,0.5452085915366337,0.2389007725178614,0.6069522246564356,9.25366135,-2.3841837594,0.15606273109779417,0.5065721918088828,0.5178625196121586,73.34302108055974
324.0,1.6613646376772062,1,Kiara,72.265625,-18.31910609333333,0.001219089190336,0.4656482342,0.19429232834979,0.5222795530100001,8.810795107,-1.917272242,0.07624633431085044,0.481309378196548,0.4353559856688176,70.78348710992613
325.0,1.66428542843074,1,Kiara,74.38858695652173,-18.933618444444445,-0.0959813901973564,0.421777950590099,0.1828648323423762,0.4768168699415841,9.25783534,-10.0464802445,0.0826214458753028,0.4527786760128807,0.403958949343558,70.31744462440909
326.0,1.6633185440797904,1,Kiara,96.6796875,-18.902819635,-0.1202835597826799,0.362972574529,0.1670175582414,0.430246694061,9.2260955725,-13.33163093,0.1495601173020528,0.4542086092897012,0.3568993978532244,71.29690084034327
327.0,1.6797693450610092,1,Kiara,127.37771739130434,-17.978150544444443,-0.0749947101383168,0.3011715640069307,0.1476403368526039,0.3791186119059405,8.953964744499999,-9.3081394655,0.24174423052403415,0.49713933052481074,0.2907729705051164,73.12674034081934
328.0,1.6767956515067333,1,Kiara,148.4375,-18.51310753222222,-0.0598480586275499,0.2586354022229999,0.131505067008406,0.353551749752,9.4373828365,-11.708076688,0.30498533724340177,0.4723022406408358,0.24813527221347054,73.75241581026583
329.0,1.669060564418826,1,Kiara,122.28260869565216,-18.235762479,-0.0189470587091089,0.2217646936475247,0.1010537924219534,0.2937678873910891,9.702639922,-5.12728497785,0.22644396276934842,0.4851788721703552,0.20156251917799559,71.9635258748552
330.0,1.6494302173911135,1,Kiara,133.49184782608697,-18.83236905444444,0.1431718347642752,0.1834558121643564,0.0598965903622198,0.2796000978980197,8.745401463,0.6391383270000002,0.260104551829657,0.4574795029159444,0.1978381270004408,72.274550087588
331.0,1.6288705450352725,1,Kiara,115.234375,-19.691554465555555,0.2537095473192,0.1384035214012,0.087090914998185,0.323266466517,9.170736237,-2.0887924195000003,0.20527859237536658,0.4175890710301735,0.25315633991959535,71.14189141922617
332.0,1.646707039073577,1,Kiara,120.2445652173913,-19.035293252,0.3386282673584159,0.0946721094236732,0.1024862792068802,0.3843923714841584,9.423831353,0.303383072,0.22032385566747417,0.44805809773857247,0.31104076966966643,72.27150044356969
333.0,1.6729135676393787,1,Kiara,108.3984375,-18.956576938888887,0.279863501564,0.05331586249157,0.1110858532027899,0.31368939812,8.838271045,0.8249197234,0.18475073313782991,0.4517127544469506,0.25670241574233754,71.16918704205871
334.0,1.854879619116538,1,Kiara,97.82608695652172,-18.459145173333333,0.1648717128580693,0.0628516081557188,0.0582421988487227,0.2159192445650495,8.962190859,4.802100600499999,0.153002677546857,0.47480761581808534,0.1488667028356771,69.94867856343959
335.0,1.8285272219110345,1,Kiara,131.8359375,-18.37416242333333,-0.01007974380721,0.08832941958946,0.037030954671297,0.155629158098,9.420914085,-6.1057234395,0.25513196480938416,0.4787532119100355,0.06842226121970237,71.39505592886573
336.0,1.6500513091273388,1,Kiara,109.03532608695652,-19.953957995,0.0744254037327673,0.146466583569602,0.129498696096594,0.2705924353073267,10.010189566,-5.4200300135,0.18666326660716562,0.4054061475511157,0.16988322026089445,69.95720486484386
337.0,1.654096945346362,1,Kiara,103.94021739130434,-20.16258322333333,0.312216248829,0.287622953347,0.13173301485984,0.4653421365039999,11.029898745,-5.5980116455,0.1713629988524799,0.39572005377803626,0.3813549101319839,71.22673990344191
338.0,1.6778103472786905,1,Kiara,98.6328125,-18.591923256666668,0.4816758696,0.3181617606386139,0.1961421165029009,0.6175315301752475,11.69264169,-1.8489840475,0.15542521994134897,0.4686429684432167,0.5298388504061539,72.97093082339481
339.0,1.6699840650057582,1,Kiara,99.8641304347826,-18.89226277,0.5436864433465346,0.3745827920594059,0.2144341812149901,0.7043629828514851,12.550469745,-0.0919120879999999,0.1591227846487313,0.45469874552661105,0.6057885825329653,73.48514929955768
340.0,1.656495224811718,1,Kiara,163.0859375,-15.649629251111111,0.420533948284,0.416473899012,0.22317771400866,0.660444638845,12.38875247,-1.74013390895,0.3489736070381232,0.6052483822441119,0.5503853589861426,78.64553559958094
341.0,1.6392530718975182,1,Kiara,165.08152173913044,-15.881359931111112,0.3418112223524752,0.4183307940693069,0.2330236434327128,0.6239716985316831,12.505829685,-6.4968406035,0.3549662119087084,0.5944895439458346,0.5106517946888156,78.3184131230347
342.0,1.646512232866563,1,Kiara,205.078125,-15.40352767111111,0.278922809548,0.417174442223,0.18212283416817,0.557472155749,13.688401425,-7.731485415,0.4750733137829912,0.6166744355581166,0.4616874835167912,80.59505937049155
343.0,1.51782331169209,1,Kiara,111.0733695652174,-16.504584308,0.1466897756991287,0.4076547986584158,0.2084871750151485,0.4916103898267326,13.868172255,-10.39048795,0.19278337370903995,0.5655543580891662,0.4140007057585629,73.9543254173193
344.0,1.4969016333844922,1,Kiara,94.7265625,-17.926746794444444,0.08890198332859,0.3668292722569999,0.1877858976086,0.427555465936,13.80471101,-9.957210053,0.1436950146627566,0.4995259140974954,0.3607767231227366,71.75442504740697
345.0,1.5049618871791717,1,Kiara,65.21739130434783,-16.668758394444446,0.0177815933850188,0.4163837696762376,0.2134587730148514,0.4735237386693069,14.42837613,-12.60003791,0.05508096391686855,0.557932050810634,0.4027204640910515,71.01856760079339
346.0,1.546026468723579,1,Kiara,93.75,-19.503909135,-0.0994554002993861,0.4229156494138614,0.2179427248152475,0.4936066296861386,15.190384825,-16.065583375000003,0.14076246334310852,0.42630110591857934,0.4187238793280312,71.28065357250938
347.0,1.5283455307544385,1,Kiara,95.703125,-19.855517954444444,-0.13814345387643,0.397081491355,0.1833972640545,0.4712802976119999,14.80498191,-11.676421775,0.1466275659824047,0.4099765414170168,0.3941251791574797,71.00527124991214
348.0,1.510187245291614,1,Kiara,166.10054347826087,-22.26619630333333,-0.218442315480198,0.3506490355346535,0.169493245906594,0.4548232246257426,14.58825317,-12.33674157,0.35802626545964555,0.2980530855118529,0.3832111808664312,73.8028517822666
349.0,1.5364424291699832,1,Kiara,208.0078125,-21.970915830000003,-0.232189560444,0.314478884473,0.15224743888111,0.4270883626589999,14.544883615,-9.591244659,0.4838709677419355,0.31176242630881623,0.35891459857915303,76.28988525917774
350.0,1.899243391496983,1,Kiara,177.30978260869566,-21.44610990111111,-0.2438304857660396,0.2782854230009901,0.1548228423546822,0.4189549739316832,14.4626726,-7.484589532499999,0.3916868545199541,0.3361282208030662,0.3423514271205048,74.60608715699992
351.0,2.62444494591774,1,Kiara,132.8125,-22.240421349,-0.220432672379,0.2569040109649,0.14185353943955,0.387291316801,14.762344565,-3.7383803775,0.25806451612903225,0.29924977024008054,0.3117483919070447,71.24627470071798
352.0,2.7771950697488115,1,Kiara,157.9483695652174,-19.79677296111111,-0.2144397730752475,0.2183643278825742,0.140869764796495,0.3488904982059406,14.196496565,-1.78433873,0.33354583705214846,0.41270396570156437,0.28467920224524446,73.9007979474237
353.0,2.236963012780966,1,Kiara,117.1875,-21.384515216666667,-0.1881480696708,0.227071670194723,0.15151040904607,0.382582609189,15.46988702,-2.471174151,0.21114369501466276,0.3389879511157343,0.27984534798723687,70.52949209757996
354.0,1.8094487209949857,1,Kiara,87.890625,-21.91346982888889,-0.1595519990931188,0.2117851016193069,0.1489216528492574,0.3217544502514852,14.572773715,-2.2074470915,0.12316715542521994,0.3144295407230023,0.2552010529635744,68.27810602088903
355.0,1.862917912816042,1,Kiara,96.8070652173913,-23.687922078,-0.1207770293928118,0.2259545579957921,0.1494866212473267,0.3161458112198019,15.4996654,-0.5538965761,0.1499426239959199,0.23204491726183213,0.2484705413438725,67.77115581781136
356.0,1.9146296307561936,1,Kiara,91.796875,-24.006829843333332,-0.13625317130334,0.0201016120555,0.094278610679428,0.2586008965096,14.13390261,-1.1654848759999998,0.1348973607038123,0.2172386038324395,0.1318759832457844,66.3598183260318
357.0,1.9517829593549685,1,Kiara,88.65489130434783,-23.71729681,-0.1662687432967327,-0.5288655080019802,-0.0741505853177703,0.5711693432267327,10.981232005,-1.438358728,0.1254621955884228,0.23068110133705583,0.484578012485736,69.15404122769901
358.0,1.951378604921391,1,Kiara,83.0078125,-23.58315631555556,-0.17532854791788,-0.739706756753,-0.1493240766419999,0.789071326994,8.5415986035,-2.397865097,0.10850439882697947,0.23690900300712692,0.6781825847539745,70.4384566906569
359.0,1.956689410719816,1,Kiara,77.44565217391305,-18.918635426666665,-0.1472477400596039,-0.619030508340594,-0.1093545634490722,0.6530164871376237,8.811844886500001,-0.4653034745,0.09180160652811425,0.4534743105550628,0.5621507114014561,71.77492954843468
360.0,1.9137721188435537,1,Kiara,81.0546875,-21.722356028,-0.1279101948954,-0.5201360877460001,-0.0945216151169,0.545706457151,8.6589986445,-0.8827582451500001,0.10263929618768329,0.32330261044485664,0.47072385269023076,69.69820807061379
361.0,1.9616980893032792,1,Kiara,97.82608695652172,-24.917037744444443,-0.1063589551288118,-0.4420922068148514,-0.0787736082168613,0.4645169448376238,8.502118723999999,-1.53729428865,0.153002677546857,0.17497928958941902,0.3966366094036049,68.33289790123901
362.0,2.044150351916328,1,Kiara,74.38858695652173,-25.52243964888889,-0.091491427536,-0.375993904258,-0.048219233445898,0.394651435386,8.8926029595,-3.184775494,0.0826214458753028,0.1468715690433655,0.33235384505047394,66.07371850643024
363.0,2.082750892092199,1,Kiara,70.3125,-25.545343976,-0.0765313393273267,-0.314454044080198,-0.0502260656520099,0.3303164640623762,8.981381697,-1.84083371,0.07038123167155426,0.14580816236920704,0.2762236958061513,65.36711214831078
364.0,2.1587910420508414,1,Kiara,62.16032608695652,-25.61390348333333,-0.0624101048844554,-0.2693515982544555,-0.0305719007299574,0.2802877866772277,8.8838786955,-0.72038411905,0.04590080326405713,0.14262506786825943,0.2318819245149572,64.48457227581991
365.0,2.6180524242035617,1,Kiara,49.8046875,-25.21678241555556,-0.059486358044,-0.23007165435,-0.0139369203689108,0.239258022036,8.5875532725,-1.146799539,0.008797653958944282,0.16106268412632357,0.19581638344976063,63.67523635629286
366.0,2.776380306432224,1,Kiara,81.52173913043478,-24.797142842,-0.0441194167118613,-0.1929015143237623,-0.011846661538291,0.1991110315821782,8.5915862265,-2.034267602,0.1040418207318628,0.1805457940686166,0.16003636547480654,65.5276768672591
367.0,2.8032314252021178,1,Kiara,84.9609375,-24.71539866666667,-0.0425468656227899,-0.164285092982,0.000878321957548,0.170785031595,8.908797533000001,-3.5689898545,0.11436950146627566,0.18434102896905072,0.13439427119183173,65.57463654648878
368.0,2.7664742570191048,1,Kiara,82.54076086956522,-24.663475376666664,-0.0336382771372277,-0.1412170228336633,0.0041623549357118,0.1486205620089108,8.8852172035,-2.1454590705,0.10710187428279995,0.18675173384863164,0.11239217000404547,65.28219565187194
369.0,2.191933256743605,1,Kiara,73.3695652173913,-24.60402729,-0.02736876912093,-0.1224564686305,0.0100620582640559,0.1338405335486,8.563376561,-0.7531509107500001,0.07956139232436565,0.18951180149089897,0.09500291377731948,64.62539277459666
370.0,2.1732038109317195,1,Kiara,73.2421875,-24.728902571,-0.0339213105064801,-0.1101770930074257,0.0138644488201108,0.1197335560741584,8.4458935235,-2.026792467,0.07917888563049853,0.18371406700131426,0.08622263603993632,64.47792760494524
371.0,2.1412278329242143,1,Kiara,76.42663043478261,-24.065230216666667,-0.0273310656245346,-0.0961458943388118,0.0133681012617224,0.1033367287545544,8.696688501,-2.420162368,0.0887415529771771,0.21452717963408832,0.07250131247170773,64.92916771492627
372.0,2.1492561367429004,1,Kiara,79.1015625,-24.25382799888889,-0.0265502992630149,-0.0836675193336,0.018023147624974,0.0916044809691,8.961450574499999,-1.9932928015,0.0967741935483871,0.2057709241294541,0.06240359271404793,64.90396370223357
373.0,2.1673314187662025,1,Kiara,95.78804347826087,-24.520966047,-0.0255915483669901,-0.0769694324618811,0.0222741285762504,0.0862898117876237,8.978754784,-1.1691957353,0.1468825704449828,0.19336818547203996,0.05746458720971629,65.71778633224187
374.0,1.890283381246527,1,Kiara,76.171875,-24.43187098222222,-0.019983539322986,-0.067526479331,0.023088853669251,0.0764336701166999,8.700636052,-0.05020504777,0.08797653958944282,0.19750470893591052,0.048471855894596634,64.51736214617655
375.0,1.6330832460205449,1,Kiara,73.3695652173913,-23.918189812222224,-0.0183230382285019,-0.0622631235320792,0.027803892522495,0.0727369272715841,8.578179413,-1.5947803779999998,0.07956139232436565,0.22135400090234272,0.045324445226971925,64.6100714191312
376.0,1.5442430004615513,1,Kiara,74.21875,-23.858094164,-0.017314638402673,-0.0566059094753,0.027395655441236,0.0671472964863,8.632128723000001,-1.9289836595,0.08211143695014662,0.2241441336618593,0.040487964830819616,64.6558620615918
377.0,1.507243111819117,1,Kiara,73.3695652173913,-24.730325042222223,-0.0151822416189237,-0.0513442124910891,0.0288105399065742,0.0631127818637623,9.0209841235,-2.9683439810000003,0.07956139232436565,0.18364802422327617,0.0365101094027804,64.08708501238887
378.0,1.5683856210069076,1,Kiara,91.71195652173913,-25.506271216666665,-0.0129214111286487,-0.0458101835224,0.0309103349088699,0.0594431174747,8.947363965000001,-1.744812538,0.13464235624123422,0.147622240244156,0.032872337480990464,64.72729270760249
379.0,1.6836069958527389,1,Kiara,79.1015625,-25.422838836666667,-0.0140643802662999,-0.0409401140532079,0.0326103037887029,0.0571275389926732,8.439660582,-0.9776283189,0.0967741935483871,0.15149585544806599,0.030574517070979905,63.998030272912374
380.0,1.672919990087209,1,Kiara,70.3125,-24.689106921,-0.009509151507852,-0.0368977717719406,0.0304255698161486,0.0521592284316831,8.545020340499999,-2.632090116,0.07038123167155426,0.1855617073885294,0.025688076964054795,63.83986973780588
381.0,1.6774171201664627,1,Kiara,62.5,-24.900803634444443,-0.0129307248295979,-0.03316795656708,0.03424744613173,0.0527723243502,8.834319692000001,-3.3654487995,0.0469208211143695,0.1757330100911948,0.0262614549164576,63.25730418271339
382.0,1.714015816149729,1,Kiara,87.63586956521739,-24.46497103555556,-0.0114906292449702,-0.0275153179568514,0.0353767778262376,0.0491163609330693,8.871328956,-2.2024656645,0.12240214203748566,0.1959679330481526,0.02344703323542839,64.98723430321097
383.0,1.725578659330226,1,Kiara,83.0078125,-24.745695716,-0.0100269015145589,-0.024244231322704,0.036546898769785,0.04891535161275,8.6578228425,-0.9480250369,0.10850439882697947,0.1829343915108935,0.022298166676633837,64.54368600808338
384.0,1.8305170399044344,1,Kiara,77.44565217391305,-24.743821366666666,-0.0123966347758079,-0.0203874897099282,0.0358703407202475,0.051254452130594,8.4823339645,-1.02378045265,0.09180160652811425,0.18302141417613502,0.020583764031969355,64.19695921293166
385.0,1.895633718904901,1,Kiara,73.3695652173913,-25.379232846666667,-0.01307763009294,-0.018792755224957,0.03566290501374,0.0509761893064399,8.792689385,-2.6395280595,0.07956139232436565,0.15352040306190068,0.019953031184098306,63.593096932702906
386.0,1.917857762842128,1,Kiara,94.7265625,-25.32911606,-0.012896782391298,-0.0147111198567831,0.0394059262418594,0.0553676019546534,9.0910011245,-1.7527267935,0.1436950146627566,0.15584723524387992,0.021405007458238822,64.9153071758476
387.0,1.9077658466021168,1,Kiara,80.50271739130434,-23.376803518888888,-0.01313011707634,-0.0114546077544649,0.039688268602059,0.0598411261063,8.8220262645,-1.1143953535,0.10098176718092565,0.246489591868878,0.020820447745240056,65.14407402800697
388.0,1.8841465864196243,1,Kiara,87.890625,-18.243241872555554,-0.0115613790162455,-0.0112698597659178,0.0365160527967485,0.056620708119792,8.532312132000001,-1.0678859338,0.12316715542521994,0.48483161739238034,0.017747840795342393,68.4233052435757
389.0,1.9270184085816944,1,Kiara,72.35054347826087,-15.8134418312,-0.014127045339095,-0.010196892799131,0.0415548185176237,0.0766163313982277,8.704989986,-0.65081546375,0.07650133877342855,0.597642859054865,0.022361603961981766,68.8806339158228
390.0,1.9836807980995,1,Kiara,59.5703125,-23.541053444444444,-0.008904698039113,-0.0082880276528846,0.04065356204439,0.05914672469219,9.000363897,-1.48680293835,0.03812316715542522,0.23886376351694677,0.020002438495423908,63.788848013275256
391.0,1.883567030692576,1,Kiara,59.10326086956522,-23.86120022,-0.0118831389731983,-0.0063736242673623,0.0402336083009504,0.048349310693594,8.6071730695,-1.1372556224,0.0367206426112457,0.22399992507346955,0.020001148134216985,63.58242113818029
392.0,1.8426480433873853,1,Kiara,152.34375,-22.734375971,-0.006115009723652,-0.015533154692888,0.03526000261922,0.06531073256538,8.265117758,-1.504116971,0.31671554252199413,0.27631634638448793,0.016926255494276444,69.78551705100794
393.0,1.8413519217836487,1,Kiara,100.88315217391305,-24.71295162333333,-0.0364081127798752,-0.1541109756913168,0.0022203151505049,0.1980656134146534,8.0341260695,-3.024009339,0.1621828381996685,0.18445464078571774,0.12420321760826546,66.4507381942881
394.0,1.8220781388313536,1,Kiara,100.88315217391305,-23.717636825555555,-0.04776911469401,-0.518965701752,-0.11179161213099,0.548401938563,4.384259658,2.733470281,0.1621828381996685,0.23066531502692583,0.4609322005793682,69.69909814895142
395.0,1.849908636360568,1,Kiara,79.1015625,-21.896658769,-0.073367358425198,-0.6097754109386139,-0.1193409999028217,0.6323933288732674,4.5155347975,-0.491645458,0.0967741935483871,0.31521004796946284,0.5442016059850138,70.0716172944814
396.0,1.872635065960084,1,Kiara,77.44565217391305,-21.220817906666667,-0.08197664526336,-0.6988790704669999,-0.15484695308662,0.733054424538,3.4862703815,-3.0001205,0.09180160652811425,0.34658812252226956,0.6294485257310029,71.03067780667755
397.0,1.875895531188679,1,Kiara,91.796875,-22.494718276666667,-0.0768844282029208,-0.6815092218980198,-0.1172935307675049,0.7065192790376238,3.634008441,-2.1915118335,0.1348973607038123,0.2874432216876212,0.6072335156207193,71.00513399929346
398.0,2.0037625202014357,1,Kiara,189.53804347826087,-22.154493846,-0.073200677822792,-0.6321915631712871,-0.0895124713351287,0.6554903329168317,3.180514784,1.911062058,0.4284074971311998,0.3032392295130249,0.559498172107172,76.68300607363767
399.0,2.0962681842329443,1,Kiara,149.4140625,-21.06170067111111,-0.0611730042562,-0.58162650098,-0.089107409172857,0.597620755146,3.488416692,-2.188027955,0.30791788856304986,0.35397564931764736,0.5135738916927066,74.51465669661442
400.0,2.026614694909937,1,Kiara,158.9673913043478,-23.360501005555555,-0.0681704307239703,-0.5436605050059407,-0.0710263832617455,0.5598777819059406,3.6775471825,-0.8104087977,0.3366058906030855,0.24724648821427705,0.478447452847487,73.52665529341293
401.0,1.9965801266263303,1,Kiara,193.6141304347826,-20.71710995,-0.065796369350111,-0.5401977983999999,-0.06188393669204,0.559352966966,3.245050049,0.4342586688000001,0.44064771133494834,0.36997437614795403,0.4741289215161956,77.04567811260398
402.0,1.964281996616272,1,Kiara,210.9375,-19.251086664444443,-0.0593099671636188,-0.4798907638663366,-0.0740566072489505,0.517429633130693,3.2096901775,-1.888759643,0.49266862170087977,0.4380391980817673,0.42153402461019773,78.4821150078804
403.0,1.937360459867994,1,Kiara,174.25271739130434,-20.288770152222224,-0.052100110965442,-0.445054928321,-0.0658314095204899,0.464402480293,3.5056541215,-4.8395583625,0.38250669386714264,0.38986142183826966,0.3889293575493022,75.4399057997965
404.0,1.948524753106332,1,Kiara,165.0390625,-21.456886085555556,-0.0471008468470615,-0.4205204316039604,-0.0646327539916138,0.4367518168336634,3.292666078,-2.2331570645000003,0.3548387096774194,0.3356279019591816,0.366597551244992,74.0570894270185
405.0,1.9474462361680036,1,Kiara,131.4538043478261,-22.91684670444444,-0.054893364165267,-0.422376645666,-0.0614677552715599,0.438074431561,2.4900178195,-1.3051466369,0.25398444472778275,0.26784455872436114,0.3686500775985504,71.24302422003639
406.0,1.758942212596572,1,Kiara,85.9375,-22.427940635555554,-0.0312940591813168,-0.3049881863920792,-0.0230597859435118,0.3140643223188119,3.572573577,-3.31982571,0.11730205278592376,0.29054358734768343,0.2582012330372536,67.8981739681887
407.0,1.809755909701912,1,Kiara,102.9211956521739,-22.594410537,-0.0267760761192821,-0.2128155358821782,0.0010079094559009,0.2202552268930693,4.000509614,0.1464509103,0.16830294530154274,0.28281468951175176,0.17464971805114707,68.15703292458105
408.0,1.9295707463322052,1,Kiara,108.3984375,-21.653112132222223,-0.0122424818738948,-0.1419807426918,0.017725360625852,0.1591060997727,3.82800831,5.5941136155,0.18475073313782991,0.3265174798692068,0.11093426463658133,68.50069853827974
409.0,1.9027489468648453,1,Kiara,85.59782608695652,-20.45630712111111,-0.0144159432928564,-0.0914703767564752,0.039317407502693,0.1330305336885148,3.792294626,0.7578716551,0.11628203493561136,0.38208298198188534,0.07228171381045512,67.48889019297849
410.0,1.8777060428523096,1,Kiara,65.21739130434783,-20.612351532222224,-0.000516659609922,-0.06362090472826,0.0636877384028067,0.1185865947165999,4.7035098795,0.99742582265,0.05508096391686855,0.3748381208935979,0.06277389436383361,66.10186788397121
411.0,1.8347443471588565,1,Kiara,100.5859375,-20.315596173,-0.0019150420059009,-0.0215889072690019,0.0609203625606772,0.1086106671184158,4.5994368735,-0.6255149370000002,0.16129032258064516,0.3886159379872133,0.039979301954787896,68.20903212309777
412.0,1.843824585167291,1,Kiara,131.4538043478261,-19.401112866666665,-0.032179459683328,0.015078536600362,0.08500191534085,0.1324814697867,4.941129602,-1.61643442575,0.25398444472778275,0.4310737515978855,0.0646695899604259,70.7699306334137
413.0,1.808450693385944,1,Kiara,137.6953125,-17.35345083888889,-0.1351024844809505,0.0383626063942079,0.0741551415160594,0.1907235897187128,5.4124773155,3.886190394,0.2727272727272727,0.5261430132355059,0.12460752768225819,72.76512183482959
414.0,1.8099548481589,1,Kiara,139.60597826086956,-17.280668818888888,-0.398443308432,0.08868945604699,0.092885447233116,0.436982266492,5.1843320475,2.128234447,0.27846487313527984,0.5295221513979711,0.3581235696973283,74.78855183705987
415.0,1.8231166815294615,1,Kiara,125.0,-18.309548193,-0.6243190091475248,0.1624254268836633,0.1425079404247128,0.668063059789109,5.6980140345,-7.247785708999999,0.23460410557184752,0.4817531343023745,0.575654196895521,75.07835329822962
416.0,1.8394821603065352,1,Kiara,139.60597826086956,-18.124595168888888,-0.8229099051861386,0.5203680939653466,0.2370150396817821,1.0094666833841583,8.676586138,-15.76036418,0.27846487313527984,0.4903401702494008,0.8825136665316972,78.51348883795198
417.0,1.878127864935777,1,Kiara,138.58695652173913,-18.32408979888889,-0.845612359136,0.6758291022390001,0.333756169217,1.140543058954,9.5182035375,-18.876411795,0.2754048195843427,0.4810779937195401,1.0,79.28103231632133
418.0,1.902898618841192,1,Kiara,146.484375,-18.67639192,-0.7486265768594059,0.6511330132930693,0.2769056595756435,1.0388769587544555,8.742013796,-14.265563735,0.2991202346041056,0.4647212404697133,0.9077030308550819,78.82068382455932
419.0,1.8541266509020968,1,Kiara,159.98641304347825,-18.71627359888889,-0.713156746829,0.5993982314849999,0.2769028786726,0.979374989801,9.4528400615,-16.956954555,0.3396659441540227,0.46286960591606086,0.8553789358035152,79.1907856405013
420.0,1.744891526473715,1,Kiara,130.859375,-18.142577352222222,-0.6439400283920792,0.5563025572188118,0.2516313999064554,0.898297339959406,9.751231034,-14.72107995,0.25219941348973607,0.48950528984973457,0.7794363865623869,77.15354284049063
421.0,1.526427345391778,1,Kiara,122.28260869565216,-18.204975334,-0.587753524904,0.513394217402,0.256747017609,0.831778719732,9.453332652,-10.195606785,0.22644396276934842,0.48660826388801914,0.7202669719580298,76.13031419770743
422.0,1.4972071636403974,1,Kiara,155.2734375,-18.67086900555556,-0.5418142602376238,0.5410354974118812,0.2815306450539604,0.8309110659910891,9.647974159,-12.695357925,0.3255131964809384,0.46497765944471897,0.7151041618038692,77.81082913738635
423.0,1.6690552956698357,1,Kiara,127.37771739130434,-17.48995531,-0.464823893918,0.694005704194,0.2798397830611,0.897378092159,10.89086298,-13.24130844,0.24174423052403415,0.5198053563845603,0.7736246160585767,77.26154581556402
424.0,1.784427056237849,1,Kiara,121.09375,-16.961352058,-0.3705961278623762,0.6714033155356435,0.2719377667372376,0.8400826116079207,10.814325065,-8.803758051500001,0.22287390029325513,0.5443474537547123,0.713191526888277,76.69517966602787
425.0,1.7874757405671913,1,Kiara,119.22554347826087,-17.82432039888889,-0.300896406370297,0.6479337845089109,0.2845761007470099,0.7968836335940594,10.697857485,-3.883086657,0.21726380211653706,0.5042813872495943,0.6730220309090283,75.7808289365981
426.0,1.7874757396663756,1,Kiara,123.3016304347826,-15.849511538888889,-0.2600737047994,0.630941068486,0.2613738141055799,0.751992928315,10.963891495,-3.018152395,0.22950401632028555,0.5959682074615116,0.6386833404054493,76.85116553918745
427.0,1.7862113689146846,1,Kiara,129.8828125,-16.44307167111111,-0.1717268792080891,0.605917090949505,0.2514862673877039,0.7055360143841585,11.582228175,-1.0875130684999998,0.24926686217008798,0.5684102790815363,0.5913678662745975,76.53720352257697
428.0,1.765447592125643,1,Kiara,221.12771739130437,-14.817624748,-0.09820480037712,0.5910826049819999,0.23373310770121,0.666965070359,11.69970652,3.3758801720000005,0.5232691572102512,0.6438768535039857,0.5599294509557229,82.67134099389864
429.0,1.7334461127625125,1,Kiara,160.15625,-14.260682404444443,-0.0389601145821089,0.544616595690099,0.2269541814833564,0.6270496392742574,11.1537881,4.8234947225,0.34017595307917886,0.6697346838774945,0.5133168203637605,78.9468698310236
430.0,1.7330077470088918,1,Kiara,110.05434782608695,-16.431229698888888,0.00230910620947,0.5118277921819999,0.20608510982129,0.5741883533909999,12.01550932,7.1780662255,0.18972332015810275,0.5689600805332542,0.47778442280788386,74.44426275202417
431.0,1.7789243621325224,1,Kiara,119.140625,-15.329929305,0.0506031383317524,0.4802319720594059,0.1916576784011881,0.5383671417386139,11.7856545,7.646549114,0.21700879765395895,0.6200914752008901,0.44881630525477006,75.37180409752801
432.0,1.7219860732077878,1,Kiara,128.39673913043478,-13.739047046888889,0.1311909014102756,0.446781818679,0.145762373866506,0.514094387198,12.315010695,10.96713284,0.24480428407497132,0.6939532744525718,0.42040676219947004,76.58677907252604
433.0,1.7671667192072824,1,Kiara,75.40760869565217,-14.972861695555556,0.1412970524381584,0.4181328745108911,0.137039508551901,0.5014775862148515,11.719176195,7.6285706185,0.08568149942623995,0.6366694814949432,0.3972367833983124,72.53155803365061
434.0,1.797267109836476,1,Kiara,74.21875,-13.375315429,0.1804967060634653,0.4642983962465347,0.1896428899897128,0.546913420630693,12.175044405,-0.839634539,0.08211143695014662,0.7108406786617916,0.46094217875872195,73.85985431301421
435.0,1.812902945432048,1,Kiara,92.73097826086956,-17.21269074111111,0.2313223368674999,0.5031502332510001,0.1906086058785999,0.596794113586,13.264366245,0.9700733281,0.13770240979217135,0.5326782511713753,0.5082526372708356,73.21220830806661
436.0,1.796362920712171,1,Kiara,90.8203125,-17.212581667777776,0.2813469418910891,0.4621032863594059,0.1555437750983069,0.5737047426623763,13.63879353,-2.6151332885,0.13196480938416422,0.5326833152498823,0.4878192533674105,72.93404999762116
437.0,1.818345968025016,1,Kiara,110.05434782608695,-20.45767891222222,0.345987018242,0.447735274426,0.17910317997707,0.60396708915,13.15697504,-1.827803441,0.18972332015810275,0.3820192921901691,0.5153032227637374,72.50112369155399
438.0,1.8092884074467,1,Kiara,210.9375,-20.962511512,0.4034861112891089,0.4460870737613861,0.1734304656738614,0.6349233928039604,13.97962801,-2.4455726496,0.49266862170087977,0.35858082340947917,0.5445044572715956,78.51237797310411
439.0,1.827389886206365,1,Kiara,192.5951086956522,-21.351822354444444,0.37041546646,0.416404347846,0.18557243996615,0.605121162471,14.76506454,-5.37950085,0.43758765778401126,0.3405058218532506,0.5098122299586573,76.91632085758849
440.0,2.124042968983757,1,Kiara,84.9609375,-21.73120217111111,0.3886407750366337,0.452914722739604,0.1879828538841584,0.6308645871693069,14.994074325,-2.7236157555,0.11436950146627566,0.32289189994551376,0.5442445975011699,70.51604960868104
441.0,2.3245409295561106,1,Kiara,109.03532608695652,-21.555541981111112,0.33456884011,0.414982319611,0.18253937810762,0.574043346196,14.854938165,-3.6762722025,0.18666326660716562,0.3310474863342244,0.48828034623126804,71.61207793800415
442.0,2.2844759786738966,1,Kiara,108.0163043478261,-20.755463952,0.2972601801816831,0.3827554714326732,0.1794969229644554,0.5303238287287129,15.014460365,-4.8424638515,0.1836032130562285,0.36819366888204613,0.44636053703093015,71.66127258395656
443.0,2.42241984288863,1,Kiara,78.125,-22.233648094444444,0.2676575184019802,0.3314189804485148,0.166284056596297,0.4658005778049505,15.58998835,-6.017567671,0.093841642228739,0.29956424025551515,0.39288647676403554,68.61469554175325
444.0,2.163215863631793,1,Kiara,83.55978260869566,-24.28739424444445,0.2457893153801,0.4011181678408,0.1886265810311899,0.528010330549,16.332762385,-4.8447597595000005,0.1101619278337371,0.204212503776083,0.43740780518224653,68.15305104344571
445.0,2.116922624219501,1,Kiara,94.7265625,-24.997013501111116,0.1871265736556435,0.095344960395396,0.1024280038942871,0.318058387810396,14.58286735,-5.882771776,0.1436950146627566,0.17126615918407473,0.1918773226222434,66.46411278444198
446.0,2.018873043288956,1,Kiara,94.76902173913044,-23.914465974,0.10204295786494,-0.512754165084,-0.0800125330053699,0.546081963848,11.435312595,-4.3846082195000005,0.14382251689404565,0.22152689200714534,0.45723088999285655,69.1926201619095
447.0,1.9364180879994557,1,Kiara,91.796875,-24.153733446666667,0.0314028277025148,-0.7034263388742574,-0.1312089140441782,0.7402856033435643,8.372455668,-7.396737786,0.1348973607038123,0.21041813399349704,0.6256205441361238,70.2279291750872
448.0,1.814733880640311,1,Kiara,72.35054347826087,-18.778131416666668,0.03895895854982,-0.60026966981,-0.10776912537524,0.615862433964,8.812087666,-7.2732920165,0.07650133877342855,0.45999765879643295,0.5311238673656278,71.29898961995079
449.0,1.8921885206303477,1,Kiara,77.44565217391305,-22.521856275555557,0.0279151705368316,-0.5138626815534654,-0.0935555372805247,0.5256052114732673,9.006352325,-7.52425354,0.09180160652811425,0.2861832532545057,0.45198069748533637,68.88607674949904
450.0,1.9523304252927165,1,Kiara,60.546875,-23.332537778,0.03420315730994,-0.438560022434,-0.08234532061949,0.449983699323,8.9708949195,-5.143857973,0.04105571847507331,0.24854477052876456,0.38410160428115236,66.87646445009585
451.0,2.0071714954989197,1,Kiara,60.12228260869565,-24.71517470888889,0.0194187209583328,-0.3727411130792079,-0.0608975873675148,0.3798378017227722,8.564641408,-4.4982746655,0.03978069616218283,0.18435142692549214,0.3217696192816346,65.58198800060264
452.0,1.997756527023771,1,Kiara,87.890625,-25.249613666666665,0.0158274398032573,-0.3211741723188118,-0.0430421012400485,0.3274251036891089,8.521569836000001,-5.5079898865,0.12316715542521994,0.15953838824183164,0.273459415675713,66.56547909281208
453.0,1.9859942943407287,1,Kiara,81.52173913043478,-25.83187320333333,0.0164163932453294,-0.273564299799,-0.0416364263716849,0.278836228423,8.855814479500001,-5.638227441,0.1040418207318628,0.13250512616955654,0.23100893497856792,65.51896940850048
454.0,1.9878199231111529,1,Kiara,74.21875,-24.433544185,0.0130956056343663,-0.2368100947762376,-0.0286907819827653,0.2396111234960395,9.088498878,-4.810558601,0.08211143695014662,0.1974270251431286,0.19658495788621339,65.58403270381018
455.0,2.007019356463155,1,Kiara,81.52173913043478,-24.335054436666667,0.0098993088735001,-0.200549093218,-0.0207105922582,0.202606648501,8.907444112,-3.4693280515,0.1040418207318628,0.2019997268516652,0.16329147270726627,65.81116491851537
456.0,2.015219797857588,1,Kiara,57.6171875,-23.95888064777777,0.0119446016765675,-0.1726941304356435,-0.0172041584059663,0.174947064540594,8.592714798500001,-3.131657044,0.03225806451612903,0.21946479866134497,0.13821606444580403,64.38446738982515
457.0,2.03678153632353,1,Kiara,57.06521739130435,-23.499574652,0.007548262413998,-0.150601652325,-0.0099380446672646,0.152070074254,8.7008773925,-4.793497221999999,0.030600535509371425,0.2407895491777733,0.11768610929762706,64.44297417470172
458.0,2.0311439963393174,1,Kiara,46.875,-23.55647520444445,0.0103934802784237,-0.1320723249079207,-0.0038393860049761,0.1336159019445544,9.04902093,-5.9023937035,0.0,0.23814775896323423,0.10098514394174322,63.665654259092754
459.0,2.0381689197644266,1,Kiara,53.7109375,-24.679394663333333,0.010684179534369,-0.1149054942016,-0.001060521197248,0.1165704068267,9.1633633035,-5.141531339,0.020527859237536656,0.18601263002746038,0.0855885941102434,63.3274174979622
460.0,2.055528953747353,1,Kiara,91.71195652173913,-25.520261658888888,0.0124042518057188,-0.1030230594013861,0.0018162435998297,0.1055688408126732,8.939295337499999,-3.673539635,0.13464235624123422,0.14697268919813009,0.0751419275438763,65.05765481555325
461.0,2.0280666207335805,1,Kiara,123.046875,-25.478635132,0.0127363561638495,-0.094738356781,0.0036476568461686,0.0973627349176,8.520346966,-3.783504555,0.2287390029325513,0.14890533390325256,0.0678412096238554,66.9043737424809
462.0,2.018321405927824,1,Kiara,94.76902173913044,-24.75807060777778,0.0121672843454772,-0.0841643357980198,0.007122823378204,0.0875276831172277,8.597172471,-5.622376834,0.14382251689404565,0.18235984756360177,0.05856282999918766,65.53327114863764
463.0,2.0138829098726903,1,Kiara,72.265625,-24.100153743333333,0.00869465336339,-0.0750507439068316,0.0103294538095059,0.0781080700297029,8.930218645499998,-5.886672881,0.07624633431085044,0.21290574316217944,0.0504004397142799,64.4829991218774
464.0,2.022330046578886,1,Kiara,55.02717391304348,-24.404131311,0.010205228801104,-0.0694426352888999,0.009815726763413,0.0727268034795,8.958519428999999,-4.3266932195,0.024480428407497125,0.1987926119322995,0.04556132924398586,63.23961054528942
465.0,2.013895240877298,1,Kiara,55.02717391304348,-24.78219564777778,0.010037524331091,-0.0639470174323762,0.0108915391242117,0.0677559043719802,8.593677648,-2.9273673635,0.024480428407497125,0.18123976538760556,0.04085918637993268,62.99135924384067
466.0,2.004956359359723,1,Kiara,57.6171875,-24.636119983333334,0.01036727762202,-0.0601827653104,0.011525306439445,0.0648094553982999,8.479772974,-3.5286831415,0.03225806451612903,0.1880217955144373,0.03771998719541703,63.20318273405916
467.0,1.997293295256945,1,Kiara,74.38858695652173,-25.508798076,0.0102558098290537,-0.0539994302243564,0.0152044801250148,0.0608133557697029,8.7469501775,-5.0931531240000005,0.0826214458753028,0.14750492271429821,0.03311967537144477,63.687445393049195
468.0,2.003594636632983,1,Kiara,95.703125,-24.91798216444444,0.00979855330756,-0.0507872545479999,0.016691339010495,0.0728636530053,9.0633077825,-4.3172765935,0.1466275659824047,0.17493544186901525,0.030712183553492797,65.27747409050421
469.0,2.0067146261120725,1,Kiara,99.8641304347826,-25.084141997777778,0.0170944502035306,-0.0432332444044059,0.0243520553393762,0.0615040228134653,9.049058996,-3.580188359,0.1591227846487313,0.16722093993728096,0.02903291315353864,65.42137027745031
470.0,1.894353817292005,1,Kiara,71.2890625,-24.620138417,0.014507499346657,-0.0418631024570999,0.02618529934249,0.0610046479858,8.675624873,-2.788502866,0.07331378299120235,0.18876379086841258,0.02811896812752923,63.95639289526523
471.0,1.7826337077808143,1,Kiara,76.42663043478261,-23.29355666111111,0.0169849006647504,-0.039752431662594,0.0281150859712118,0.0631084038786138,8.6378045695,-3.090452262,0.0887415529771771,0.25035459360999746,0.028210947047496264,65.00477375924348
472.0,1.8540559497582587,1,Kiara,69.3359375,-20.869796024444444,0.0151709362480584,-0.0374440811825841,0.0289464210935158,0.0570527449437623,8.939629824,-4.5995571680000005,0.06744868035190615,0.3628854365852406,0.026532704113153324,65.91586047896624
473.0,1.937540037959925,1,Kiara,70.3125,-17.022189375333333,0.015835336605605,-0.03287453451507,0.02892861997038,0.0794345603812999,9.12117392,-6.669495851,0.07038123167155426,0.5415228866335596,0.023715358659616194,68.09562214231073
474.0,1.955759813734938,1,Kiara,103.94021739130434,-25.697822141,0.0220458653626544,-0.0302687602289703,0.0286210785411782,0.0575808643934455,8.5973262065,-2.5306859270000004,0.1713629988524799,0.1387288756677093,0.024224013847382306,65.28579859584117
475.0,1.9510636384568427,1,Kiara,102.5390625,-25.49534906222222,0.01751912622421,-0.0253673177278,0.03176495810168,0.0469521588424999,8.4892969285,-4.4379203865,0.16715542521994134,0.14812933621235744,0.021648004539636775,65.29384457526422
476.0,1.9599226631754432,1,Kiara,147.75815217391303,-24.22283780777778,0.019891802496598,-0.027479224426097,0.0304689434199603,0.053717446440792,8.9090121,-5.1886421575,0.302945301542777,0.20720974291252228,0.0228453684875434,68.72818589370615
477.0,1.958055233150361,1,Kiara,71.2890625,-23.360867069,-0.0052535874991519,-0.179888683233,-0.00935301904698,0.1971033778418,7.9381664175,-4.641548077,0.07331378299120235,0.2472294925475587,0.14383237541740485,65.583688573734
478.0,1.935164452835975,1,Kiara,70.3125,-23.853556457777778,-0.0540844561946643,-0.6078146832168317,-0.1378380182179208,0.6324096013425743,4.3972379785,-2.675066312,0.07038123167155426,0.22435481119273257,0.544138424024554,68.45298975994031
479.0,1.9342384352634563,1,Kiara,85.9375,-22.81907349,-0.07605747176725,-0.7079532664920001,-0.15774523077719,0.7329845584820001,3.5541896075,-4.340080847,0.11730205278592376,0.2723839930543795,0.6373443845034411,70.71340404839856
480.0,1.9877920379231009,1,Kiara,96.8070652173913,-23.20819619,-0.0857140060636633,-0.7553087296752474,-0.167455560720396,0.7942217171653466,3.4517831675,-7.217685466,0.1499426239959199,0.25431772661314245,0.6814671203932726,71.50240216242229
481.0,2.017420726329753,1,Kiara,112.09239130434784,-22.721167379,-0.078031907653855,-0.735125239629,-0.16347908061326,0.762028667921,3.833971573,-0.5663799280000001,0.1958434272599771,0.276929597532225,0.6623521497502398,72.53884091358816
482.0,2.049270144346325,1,Kiara,120.1171875,-20.35580916111111,-0.0719994708465029,-0.6867891056643565,-0.1451768296358415,0.707603947080198,2.923957602,-0.0686407470000001,0.21994134897360704,0.38674892134281386,0.6160940220937711,73.96856621233607
483.0,2.111808847422856,1,Kiara,70.3125,-20.46238805666667,-0.074304891835891,-0.6503145420455445,-0.1336974832421188,0.6724671977722773,3.1932881485,-8.616238922,0.07038123167155426,0.3818006550912703,0.5823106637076076,70.64771780418718
484.0,2.173785887396994,1,Kiara,139.6484375,-20.78590393,-0.0577039500634299,-0.59920058975,-0.1229268098849,0.619090413203,3.378592756,-5.637988097,0.2785923753665689,0.36678039550320335,0.5340768743151082,74.24582724789069
485.0,2.1544152156455025,1,Kiara,125.33967391304348,-21.79739765777778,-0.065719305057198,-0.5543675630336634,-0.0966989888327128,0.5706946573980198,3.018886557,-6.11934269,0.2356241234221599,0.3198185626682812,0.4910847720900326,72.47898339718283
486.0,2.173255249709954,1,Kiara,208.984375,-22.50578561333333,-0.0554187776041125,-0.502547459875,-0.093552404035572,0.529905125489,2.7664295145000004,-3.8621252205,0.4868035190615836,0.28692938517020705,0.4440003782047137,76.73122602891186
487.0,2.117709805998904,1,Kiara,141.64402173913044,-21.8192752925,-0.0528995610910485,-0.4712163644495049,-0.0760529798300693,0.4850066436693069,3.247972688,-7.8442546535,0.2845849802371542,0.31880282347343164,0.41349573009674495,72.82529932719822
488.0,2.1287766918710536,1,Kiara,108.3984375,-22.09642502,-0.025460142915161,-0.317707594163,-0.038284042220451,0.339204072255,3.86476047,-2.1576891839,0.18475073313782991,0.3059352605655588,0.2703903602548343,69.52936067158198
489.0,2.114756186808436,1,Kiara,76.42663043478261,-21.466716582222222,-0.0014377668274554,-0.1186539723278118,0.026432980969991,0.1689049275888118,4.7630158675,-3.2268496865,0.0887415529771771,0.3351714896963409,0.0911297336516805,66.52592680511307
490.0,2.135366150816416,1,Kiara,69.29347826086956,-21.869669695555555,0.008341342200691,-0.02008658909793,0.04210237929234,0.1123087853958,5.580848793,-4.386796471,0.06732117812061711,0.3164631020622964,0.024454847650313125,65.33961956836241
491.0,2.2488577539938044,1,Kiara,91.796875,-21.682119103,0.0035094086023861,0.0127139454582406,0.0672904350789604,0.1015167268619802,5.845167087,-3.2091671,0.1348973607038123,0.3251707384359146,0.04349349857287779,66.94794406389025
492.0,2.21721796320328,1,Kiara,75.40760869565217,-22.154707215555558,-0.0179723949991168,0.063510557518146,0.0812620095258019,0.1453578172694059,6.097544968499999,4.1176393745,0.08568149942623995,0.30322932314867984,0.07595761358341933,65.96004277497632
493.0,2.2044967888041223,1,Kiara,83.0078125,-21.82488494777778,-0.1078243494232,0.28557390479516,0.12567931063894,0.355011687861,7.281476442000001,3.7213334775,0.10850439882697947,0.3185423772776896,0.2785646231669476,68.22111348920744
494.0,2.22341029357069,1,Kiara,122.28260869565216,-21.57609504333333,-0.1814554666635643,0.5394207888108911,0.1945204230834653,0.6089480615207921,8.995431707,-4.299715236,0.22644396276934842,0.33009324465598283,0.5224390948547781,72.66951095009699
