timestamp,BrightnessEV_mean,trial,experimenter,Peak-Frequency_mean,Sound pressure level (dB)_mean,Linear Acceleration x (m/s^2)_mean,Linear Acceleration y (m/s^2)_mean,Linear Acceleration z (m/s^2)_mean,Absolute acceleration (m/s^2)_mean,Inclination (deg)_mean,Rotation (deg)_mean,Peak-Frequency_norm,Sound-pressure-level_norm,Linear-Acceleration-norm,heart_rate
0.0,3.630640009962639,1,Yaoyi,63.28125,-23.22593669,-0.3209049811334752,0.0251344985503356,0.0513874558383762,0.5443871165871287,11.265200865,-10.745187147425,0.03034380776340111,0.04390121114421,0.31794305260436295,63.67723510983345
1.0,5.006607621314743,1,Yaoyi,98.01136363636364,-21.657463654,-0.221046101541141,-0.13471314735729,0.05203322603928,0.7405031581510001,11.251545875,-5.717157681,0.09082171063686775,0.1568561070457906,0.25488132445897177,65.73775809295861
2.0,5.032595397599764,1,Yaoyi,94.921875,-19.036396176666667,-0.1637768984309109,-0.0586405606780594,0.0029360490834504,0.5922300063930693,9.834002813,2.8594150179999995,0.08544177449168207,0.3456144709181072,0.16317291990645882,67.1615925001026
3.0,5.068440947064616,1,Yaoyi,61.78977272727273,-20.374327797777777,0.10741618816126,-0.105122924073753,0.00602921608761,0.42657119931,8.174767747,19.905307515,0.027746597210552847,0.2492622075910643,0.13917448311328542,64.6594743002101
4.0,5.128109197958678,1,Yaoyi,89.0625,-17.64976507,0.0634637142967623,-0.5916056145206436,0.020106531009693,0.8410725429445545,7.1867182195,19.96292493,0.07523844731977819,0.445473868378241,0.5922632041042732,71.58856099976865
5.0,5.142878553027432,1,Yaoyi,93.75,-14.935578856,0.2348898959996299,-0.5582842582152999,0.16342924476829,0.908061344279,7.906060222000001,-19.96417648,0.08340110905730129,0.640938255857756,0.6248577565319954,74.35814330369506
6.0,4.048813751605036,1,Yaoyi,68.08035714285714,-16.41737898222222,0.1970280246697623,-0.4558968569961386,0.0817017490912376,0.7644910999336634,8.235399154,-4.715513719999999,0.03870081858991285,0.5342251819554896,0.4985608663568006,71.17320548611853
7.0,3.419198850879188,1,Yaoyi,103.61842105263158,-17.817532676666666,0.24114068135676,-0.566384691114,-0.0315195504688299,0.905086631777,7.373154651,-4.011188773,0.10058566008366572,0.4333919440405309,0.6136978615199842,72.12199942231956
8.0,3.585090872510371,1,Yaoyi,117.1875,-19.41552780111111,0.2865012700843267,-0.3042904612450495,0.0949470993412841,0.8787426821891089,8.1495464775,1.46398827545,0.12421441774491682,0.31831099027853355,0.42245441581576987,69.6836555647669
9.0,3.664061335101512,1,Yaoyi,71.2890625,-19.299052075555554,0.2881371136434,-0.4923596148221,0.0092323208218099,0.869811525052,9.7298595435,-3.176700561500001,0.044288354898336414,0.3266990869516784,0.5670177213264261,69.34229791199827
10.0,3.7266598323794295,1,Yaoyi,88.65489130434783,-19.272961588,0.3612342218054455,-0.1479331242338168,0.0920089892650495,0.5383356283178218,8.658179516,-31.512386095,0.07452865064695009,0.32857801520751545,0.39440608636513647,68.58875788635028
11.0,3.5993774464816126,1,Yaoyi,56.04619565217392,-20.098234536666663,0.6091277630564356,-0.3609217499211386,0.1266563703582079,0.7875403291386138,6.481994746,-13.61412348,0.01774491682070242,0.26914529442274243,0.7184639946134788,69.3323538263948
12.0,3.665551321868517,1,Yaoyi,70.3125,-15.842566486666666,0.714446962734,-0.666321126857,0.1924942335277999,1.030191904354,6.3399247075,-19.2367492945,0.04258780036968577,0.5756207839889093,1.0,75.75920541526062
13.0,3.632232423897399,1,Yaoyi,62.16032608695652,-12.67792975777778,0.7202717177742575,0.1392449806011782,0.2187072685269802,0.8570931941821782,4.4494888515,-6.872687864,0.02839186691312385,0.8035247415791388,0.7655624476016147,76.33463381802505
14.0,3.768679697229908,1,Yaoyi,99.26470588235294,-14.577899625,0.65642249097,-0.03769921915436,0.176762738353454,0.832394581413,3.208492545,55.42986672000001,0.09300424051321082,0.6666968244633066,0.6793433265524162,75.29519331624323
15.0,3.899531769040134,1,Yaoyi,87.890625,-15.293172046666667,0.5979335697346535,-0.1158630425569802,0.2369613958171287,0.6741612998455445,6.465920955,-25.357638805,0.07319778188539741,0.6151858835186834,0.6515202861099751,74.05834852881195
16.0,2.628871851880328,1,Yaoyi,86.9140625,-17.314099159999998,0.593260108085,-0.1743916534830999,0.240893648924217,0.6762584948229999,7.4690738985,-41.207936985,0.07149722735674677,0.4696471292832883,0.6618033484416351,72.36013688606748
17.0,2.3918331702694515,1,Yaoyi,164.0625,-17.47857891888889,0.5068700318227723,-0.1167578171749505,0.2216666254193069,0.5749055199217822,6.80143979,-31.897736245,0.20584103512014787,0.4578019820497774,0.5617818548656013,74.1046993259251
18.0,2.4746778862215693,1,Yaoyi,90.6929347826087,-18.25460282333333,0.411320298347,-0.1340325472594,0.2296771690249,0.501129389141,6.6891054175,-24.15448998,0.07807763401109058,0.4019159723245456,0.4847830323203328,70.26280860667902
19.0,2.581925871788332,1,Yaoyi,124.21875,-15.7256374511,0.2586489538639019,-0.145385397932594,0.2247675659814851,0.4365409798851485,6.679655827,-23.78217451,0.13645841035120146,0.5840415261611738,0.3650604773104799,72.65815033944196
20.0,2.803485570183124,1,Yaoyi,115.95394736842104,-17.499511323333333,0.0540925026280029,-0.2248945705099208,0.1433150530171782,0.4163783542079208,7.420307756,-23.276766405,0.12206634886662124,0.45629451745795896,0.2630986904011525,70.02165071003715
21.0,3.336146064755696,1,Yaoyi,89.28571428571429,-16.764819916666667,-0.0058913307013437,-0.1688428367793299,0.06820285307677,0.2906998323931,7.7629706195,-24.8215461935,0.07562714549775548,0.5092039328288835,0.17153311842825691,68.99525505132777
22.0,4.110841561096749,1,Yaoyi,149.73958333333334,-15.261447746666668,-0.1785774367263861,-0.2042874608623069,0.0807837941209208,0.3560511639870297,8.599737252,-21.92666518,0.1808995686999384,0.6174705354838769,0.27429905537026716,73.22203024276743
23.0,4.25462805419003,1,Yaoyi,166.81985294117646,-15.65332015222222,-0.0917735333965499,-0.1686082802946999,0.0573351829846,0.288167228291,4.4560226065,40.73681883,0.2106426008481026,0.5892495168496559,0.19001929965125536,72.80400061636797
24.0,4.20034643491557,1,Yaoyi,76.48026315789474,-16.208754061,-0.0807819017344267,-0.1475655426031683,0.0927077662686534,0.2556156943143564,6.421221158,-18.74059213,0.05332814476116354,0.5492494799308176,0.18160520285085247,69.1103982771999
25.0,4.097513131074368,1,Yaoyi,90.99264705882354,-15.822974084444446,0.2445788405073599,0.049741372406144,0.0810279838621,0.374981381315,6.7367913655,-16.442569285,0.07859954332934653,0.5770317472013319,0.25322177253838546,70.52214601330999
26.0,3.54450011198568,1,Yaoyi,79.96323529411765,-14.203691568888887,0.3780981048217822,0.043652435674595,0.0389342180356623,0.4298170143396039,6.646671920499999,27.24469715,0.059393280417527464,0.6936457302164837,0.3756145713872464,72.51653094204633
27.0,3.3747098146960792,1,Yaoyi,94.921875,-13.700777861111112,0.538974624479,0.07770511925499,0.15859439267041,0.609387344535,7.06699158,-1.7730051694999998,0.08544177449168207,0.7298634809878884,0.5635785329765666,74.97582552550084
28.0,3.832503450803739,1,Yaoyi,57.97697368421053,-13.011324231,0.4916019994089108,0.1217071194793465,0.1569529424902455,0.6088921845891089,8.766026076500001,1.785797145,0.02110711158673023,0.779515060091074,0.5259350907852726,73.98380367910967
29.0,3.909843126300578,1,Yaoyi,69.01041666666667,-14.930829235555557,0.483820742369,0.11061839464337,0.11596971083921,0.590375977977,6.244072440333333,26.24213876,0.04032039433148491,0.6412803037416279,0.505025611948834,72.5419764271199
30.0,3.9462344693011295,1,Yaoyi,68.27445652173913,-16.118508650000003,0.4255236060138614,0.0573499495160079,0.1132533536903861,0.4850755321861386,6.6588276475,4.922462906500001,0.039038817005545276,0.5557485785899164,0.4382027822434633,70.95538154113761
31.0,3.772252742262079,1,Yaoyi,67.3828125,-14.982379035555557,0.4503349398811881,-0.0068297406464554,0.0441242008604673,0.490775725909901,7.4603049275,6.2851872395,0.037486136783733824,0.6375679018328282,0.4468456043431888,71.97530239241412
32.0,3.8427230829620806,1,Yaoyi,53.38541666666666,-13.377922062,0.3111673259481,-0.01088853917192,0.02365747784946,0.3426457942452,8.737073507,9.5684927415,0.013111521873074539,0.7531142110564271,0.3039828437084621,71.73146371980631
33.0,3.891667387307805,1,Yaoyi,70.3125,-15.41587829111111,0.3333703149930693,-0.0743266239568019,0.0252223410250594,0.472324052119802,8.381190512,11.62528129,0.04258780036968577,0.6063490908231309,0.3347680737206369,70.80608968703638
34.0,3.7008665271249295,1,Yaoyi,65.625,-17.215027532222223,0.3516236223048,-0.03276785832756,0.04453508412913,0.54316549006,9.483980951,6.465557795,0.03442513863216266,0.47678185531656303,0.34847372613111094,69.1976748454909
35.0,4.082152876131264,1,Yaoyi,66.796875,-16.2567514,0.3361121594433663,-0.0605322921322673,0.0665077592096237,0.3907425293613861,8.0831646265,14.120173885,0.03646580406654344,0.5457929114684589,0.34031759567320946,70.00137178433805
36.0,3.875384128689844,1,Yaoyi,62.5,-16.699482760000002,0.2936942202318,-0.10719020250795,0.10799969278207,0.4774627423199999,7.8945480815,14.552986873,0.028983364140480593,0.5139092427452144,0.32283924745124615,69.32929217536216
37.0,3.730946845683182,1,Yaoyi,58.59375,-16.900427775555556,0.3194878065624752,-0.3467486934826188,0.1257652546871485,0.5695733932594059,7.934015049,8.9483368445,0.022181146025878007,0.49943801959183204,0.48293259727253435,70.30033993379982
38.0,3.825395040773692,1,Yaoyi,62.5,-17.604187635555558,0.38910848427256,-0.526809394735,0.0837306078680309,0.759736175105,7.537790959,10.0603982225,0.028983364140480593,0.4487561653925794,0.658376190973103,71.23175079530539
39.0,3.7202834387447536,1,Yaoyi,61.19791666666666,-16.58522924888889,0.2470376365986633,-0.8481976540986139,0.1209673073924752,1.1708359227039604,9.3656062795,0.116118619,0.026715958102279714,0.5221373047888298,0.8940469785703127,73.95234264807405
40.0,3.540978897173596,1,Yaoyi,64.14473684210526,-19.267381272,0.3625174906158416,-0.699295766960396,0.1157993008639524,0.8152207775584158,7.191458257,-5.127723905999999,0.03184745597820799,0.32897988632573716,0.7967520787098749,70.95872438515201
41.0,3.550791069428356,1,Yaoyi,99.8641304347826,-19.135818956666665,0.13384016646586,-0.8016857223949999,0.14002312119629,0.8423238565040001,4.3505838125,38.426361785,0.09404805914972271,0.3384544563642163,0.8258889996497857,72.54952665656333
42.0,3.556662807327668,1,Yaoyi,143.5546875,-18.55723611333333,0.0849359388656138,-0.6710065374485149,0.0671652062410891,0.7262622168366337,5.547618498,4.129399809,0.1701293900184843,0.38012158314238875,0.6781594086248424,73.38932206707709
43.0,3.649151132566709,1,Yaoyi,113.05147058823528,-20.308099994,-0.10520689776448,-0.6721961412730001,0.056274065370906,0.6990639158599999,4.1144401505,-6.20966752503,0.11701206915298464,0.2540316582030984,0.6812299413444535,70.8384608122525
44.0,3.6491241103139673,1,Yaoyi,151.04166666666666,-19.277925985555555,-0.1945104706960396,-0.5640197898653465,0.0653720041490099,0.6162775447138614,4.993051096,-13.83637903,0.18316697473813923,0.3282204999705741,0.5972011341259015,72.37959456741689
45.0,3.630506695606013,1,Yaoyi,115.72265625,-19.47245571333333,-0.2968827029113894,-0.617970450932,0.09883790107911,0.724231577821,4.160299933,-36.44294064,0.12166358595194084,0.31421127912547875,0.6913831958289025,71.73487263517578
46.0,3.610460172094284,1,Yaoyi,151.72697368421052,-19.487589075,-0.4004368087711881,-0.4581724618050505,0.025232090240198,0.6893917338613862,4.691284807500001,-55.16567783,0.1843603463371923,0.3131214374434954,0.6061972743022709,72.29424237048396
47.0,3.542560517989587,1,Yaoyi,118.2528409090909,-19.046659218888887,-0.377725520074,-0.438420991449,-0.0082627530611699,0.612233998296,3.5074316860000003,-63.339805350000006,0.12606956813980844,0.3448753693593065,0.5753746933507643,71.26289334191397
48.0,3.5751364299024733,1,Yaoyi,98.4375,-19.37965795777778,-0.3630889783306931,-0.3027296192019802,0.1090772549064356,0.5447926130534654,2.2688006717,-61.16264563,0.09156377079482439,0.3208941870098303,0.4800575962929738,69.52246643035824
49.0,3.535639689912702,1,Yaoyi,84.5788043478261,-20.565355967777776,-0.2889660196544554,-0.3091174435930693,0.0473687108318613,0.4529703734673267,2.463826216,-43.49833377,0.06743068391866915,0.23550515435433952,0.41960350751191827,67.5315035907208
50.0,3.284537887803251,1,Yaoyi,67.3828125,-20.644889687,-0.2507599925663999,-0.3323171046776,0.050778425251043,0.450765043123,3.73276242,-44.9450434,0.037486136783733824,0.22977746712656133,0.41309102020932204,66.81178050286799
51.0,3.1267704620241656,1,Yaoyi,104.95923913043478,-19.007939514444445,-0.1788686749246534,-0.2270277806430198,0.0592674299586326,0.3224061177946534,3.9487257675,-36.65118876,0.10292051756007393,0.3476638012191335,0.2864509848599355,68.52198384471056
52.0,3.223505592623864,1,Yaoyi,149.7961956521739,-18.428045081111108,-0.12501969546885,-0.1270829957435,0.04190705305408,0.2160367008378,3.4863344345,-28.343882925,0.18099815157116447,0.3894253832467847,0.17248638673416986,69.67295872425807
53.0,3.274610895814118,1,Yaoyi,93.75,-21.188645361,-0.1839145175452475,-0.0669564338688099,0.0417436951620326,0.228902309600693,4.511585925,-35.031293695,0.08340110905730129,0.19061844804058467,0.1897949989868612,65.47380354952793
54.0,3.3449637727104733,1,Yaoyi,82.54076086956522,-22.1275826,-0.12383020159191,-0.060300917803999,0.0499254977522079,0.185721902158,4.660219911,-53.36891745,0.06388170055452864,0.12300009843870943,0.13518657362115288,63.83512778132431
55.0,3.3883385733686704,1,Yaoyi,103.515625,-20.92143877555556,-0.0856162739829406,-0.1022650002743861,0.0714342178679307,0.1696254201671287,4.7763766315,-59.72040685,0.10040665434380776,0.2098615535006987,0.14007129840250704,65.6470421161046
56.0,3.346419245115994,1,Yaoyi,199.7282608695652,-21.325194124444447,-0.064395900534741,-0.05452969475943,0.054035014470269,0.1454446588421999,4.6629762015,-46.21779848,0.2679482439926062,0.18078477477598592,0.08803556123049296,68.23266666700789
57.0,3.3653667703461454,1,Yaoyi,163.0859375,-21.734715398,-0.0306738445481287,-0.0814037656936831,0.0211717836892475,0.1891455996848514,4.7675389475,-52.8374277,0.2041404805914972,0.15129275816987448,0.07716985503383124,66.51568155013909
58.0,3.517635491291675,1,Yaoyi,144.70108695652175,-21.73965646,-0.09963493393881,-0.0469794109456499,0.09298334716752,0.1927378347581,4.8847192265,-53.488244225,0.1721256931608133,0.15093692346245954,0.13279501899080337,66.31611709669221
59.0,3.677823216780861,1,Yaoyi,190.4296875,-22.240682517777778,-0.0011361483762376,0.0831078002800792,0.0184127605123465,0.2952513030584158,5.770458855,-50.39000343,0.25175600739371534,0.11485511338264108,0.0726892877388756,66.994895810377
60.0,3.6669830470906657,1,Yaoyi,109.03532608695652,-21.97933232111111,-0.0769005858409386,-0.0334722201000099,0.0664180999733069,0.2646741653089109,5.9040012090000005,-54.82452131,0.11001848428835488,0.13367646611282674,0.09494318319229103,64.56403274465934
61.0,3.926951774496204,1,Yaoyi,120.2445652173913,-21.679112791,-0.03109331475382,-0.14877419534807,0.095445165286195,0.2393262190791,5.1578643825,-53.717648505,0.1295378927911275,0.15529702636026574,0.1687626962687518,65.80442374229575
62.0,4.001057421429054,1,Yaoyi,99.609375,-22.181890567777774,-0.0103863310052376,-0.0594169994550396,0.0204293551964663,0.1477071033517821,5.4839554075,-47.885642535,0.09360443622920517,0.11908906477337529,0.05084867929375307,63.70794693621463
63.0,3.904239920320925,1,Yaoyi,143.6820652173913,-21.670284406666667,-0.04817356376965,-0.10124525649776,0.05470283081095,0.3478764723006,6.556383104,-46.55659556,0.17035120147874308,0.1559328098327659,0.1130404859318354,66.18254163502273
64.0,3.8258798699509295,1,Yaoyi,76.171875,-18.25676957,-0.0114029892104158,-0.2080767706674653,0.0473558006424722,0.5075340336891089,7.1362964765,-47.47356743,0.05279112754158965,0.4017599322533672,0.20362060814336766,67.50590660301914
65.0,3.736312577555807,1,Yaoyi,91.71195652173913,-21.352084268888888,0.02316894006008,-0.032578136958978,0.07665198614215,0.2134569109941,6.273338157,-49.04115826,0.0798521256931608,0.1788482585613073,0.07403320707722363,64.3354872732167
66.0,3.6734685936091376,1,Yaoyi,115.234375,-18.17341272333333,-0.0453546359516792,-0.0372710998511386,0.0495236992669465,0.2161181632479208,7.387419872,-44.20705741,0.12081330868761551,0.40776294519768275,0.0642092735807588,67.82309570477058
67.0,3.801900399060829,1,Yaoyi,114.1304347826087,-19.679805901111116,0.0008689408314799,-0.03463751096483,0.06087291217608,0.22685405245159,6.147354664,-43.136160975,0.1188909426987061,0.29927878214399206,0.05732471484391311,66.42776195845333
68.0,3.7460520303108154,1,Yaoyi,108.0163043478261,-20.367531963,-0.0208943542956633,-0.0382778109100198,0.0567954529655049,0.1549269641117821,7.7741247705,-52.71595878,0.10824399260628466,0.2497516153094435,0.05891688238548835,65.63323429492291
69.0,3.943982057334385,1,Yaoyi,104.4921875,-21.429441454444444,-0.0003306426756138,-0.2314826350745346,0.0810287808757722,0.3158121781831683,7.274841823,-31.504469185,0.1021072088724584,0.17327731622368772,0.23575271363096584,66.00749368118115
70.0,4.108159743986842,1,Yaoyi,100.88315217391305,-21.81167675777778,-0.0055150791845899,-0.411785931501,0.10111537987421,0.467806530051,6.314854665,-43.50100232,0.09582255083179297,0.14575032155629206,0.41783441321178505,67.00813018100564
71.0,4.198704111430614,1,Yaoyi,156.25,-22.767667107,-0.0177930468362079,-0.4885153631746,0.134824554322594,0.6169853037396039,6.6103495015,-52.70014976,0.1922365988909427,0.07690387797655568,0.5023951045399786,68.78673934985736
72.0,4.241988010805981,1,Yaoyi,207.8804347826087,-22.776296347777777,0.09181770289784,-0.26276325178229,0.07764351603837,0.5385209459170001,6.61713303,-54.28406218,0.28214417744916814,0.07628243599356241,0.2802699584617057,68.80043244859976
73.0,4.259381240699457,1,Yaoyi,240.234375,-23.83554166,0.029848474959594,-0.1561545136964257,0.1191522911550297,0.3724803863827722,7.437507532,-62.02574257,0.3384842883548983,0.0,0.18831952138242086,68.27624193815733
74.0,4.04491193557329,1,Yaoyi,191.57608695652172,-23.285646505,-0.00954243667469,-0.04900288898624,0.059295473724946,0.2452897004932999,6.978968675,-65.483904305,0.2537523105360443,0.03960115893876845,0.06493200839416513,66.06971618513943
75.0,3.932990248705616,1,Yaoyi,178.7109375,-23.573562201111116,-0.0821438912160643,0.6360581240623763,0.0244754084312673,0.6634278337158417,5.910349026,-42.934615795,0.23134935304990756,0.018866669574768735,0.6395839314812367,69.97005854774527
76.0,3.891540153512964,1,Yaoyi,139.60597826086956,-23.232759577777777,-0.1117883961616,0.419625262459,-0.0279984039756699,0.491929999094,7.869551557999999,-57.632470015,0.16325323475046208,0.043409855181437244,0.4291455329441804,67.21914722073993
77.0,3.9488510124038423,1,Yaoyi,191.57608695652172,-19.954234356666667,-0.0458337544849544,0.3105389272248812,0.0448281245779801,0.4139625395315842,1.7004141646000002,-46.280462075,0.2537523105360443,0.27951558767508267,0.308904170883537,70.90046662989018
78.0,4.093939181639815,1,Yaoyi,174.8046875,-21.163239185,-0.08388971937533,0.48237786634894,0.07454970746259,0.5911711221093,1.6711562215,-99.720167715,0.22454713493530498,0.1924480950281133,0.49034782330001536,70.72310242544359
79.0,4.3152720273724805,1,Yaoyi,213.9945652173913,-22.01412202333333,0.3706934326261188,0.060418807509792,0.0591414253515346,0.6218459321316832,2.3242675815,35.603559265,0.29279112754158965,0.13117105664593565,0.3731877626515177,70.41537733179516
80.0,4.57440813937607,1,Yaoyi,239.2578125,-22.75712754111111,0.2584553726694951,0.178071253108396,0.0831998231053564,0.3959742538554456,2.920867743,-77.314414095,0.33678373382624766,0.07766289361820393,0.31665707417117683,70.20088599331281
81.0,4.499738107889335,1,Yaoyi,199.7282608695652,-21.562601041,0.04430962426068,0.06305646130689,0.0505167097267399,0.3792604237655,4.6132514345,-101.31376323,0.2679482439926062,0.16368771736387,0.07983624343684834,67.96190743571336
82.0,4.423609157111084,1,Yaoyi,182.6171875,-21.766727825,-0.3547766472969505,0.1316212462457426,0.0310194211443366,0.7426641322940594,2.7211313985,-49.58416791,0.23815157116451013,0.14898735649809075,0.37263973250115173,69.53199756127651
83.0,4.353904672795305,1,Yaoyi,188.51902173913044,-22.69382076888889,-0.37783322560061,0.087111672062024,0.03909741915626,0.5522506429743,4.775598259,-19.509979775,0.24842883548983363,0.08222198370269924,0.3828607582482389,69.01812658021498
84.0,4.3075616961918985,1,Yaoyi,190.5570652173913,-21.512212465,-0.2242716605804752,0.1483562426591881,0.021744330312891,0.3916368006792079,3.645115453,43.28781015,0.25197781885397413,0.16731649275628857,0.26072590678369956,69.13316154442454
85.0,4.246219916286458,1,Yaoyi,197.265625,-21.55481942111111,-0.186955816822381,0.06981699633262,0.06183939260456,0.5208989787122,7.6575868735,-15.605207095,0.26365988909426985,0.16424811722049557,0.19875920866392735,68.83424885784277
86.0,4.292066704273419,1,Yaoyi,187.5,-21.15309250888889,-0.1782610843805445,0.1413823485103465,0.0396342223822901,0.3041257608439603,5.70123261,-3.7638866755,0.24665434380776338,0.1931788163842166,0.2211828956953794,69.0206958383289
87.0,4.277183881607958,1,Yaoyi,193.359375,-22.022352753333333,-0.1107864023056,0.06178121353583,0.05121419484477,0.1696095119413,5.109766802499999,-0.3390593150000001,0.2568576709796673,0.130578313749497,0.1253040688349041,67.70652573526654
88.0,3.984808652788528,1,Yaoyi,185.46195652173915,-21.235954644,-0.1052109427638613,0.0564565062269505,0.048087611521791,0.1453719381174257,6.5278821925,2.9906890350000026,0.24310536044362294,0.18721143050582897,0.11707976555190859,68.04528249935768
89.0,4.41133282078155,1,Yaoyi,193.359375,-22.08611018333333,-0.0726472379510891,0.0252070224756712,0.0457437001303168,0.1020436565270297,15.74475398,-167.9105475,0.2568576709796673,0.125986769168681,0.07711182161337216,67.26588922252449
90.0,4.548635946841647,1,Yaoyi,201.7663043478261,-21.70097039666667,-0.0630785360079032,0.03081699507393,0.04774390159148,0.1078671854038,28.94696823,-114.38281742,0.27149722735674675,0.15372293262956788,0.07245476120320489,67.85425782831538
91.0,4.524190900924711,1,Yaoyi,230.46875,-21.247965337777774,-0.0535075849486495,0.0240692556230693,0.0422745297159366,0.0985808803461188,8.8750053205,-104.58709493,0.32147874306839186,0.18634647036036536,0.05963887926350138,69.14284353980023
92.0,4.423809105698326,1,Yaoyi,601.2228260869565,-21.416049735,-0.036271460195772,0.0136512550132903,0.049785708366277,0.0761230440609,1.2374292055,30.20955685000001,0.967097966728281,0.17424173208616747,0.05024604808270291,81.83482850426125
93.0,4.392274002398656,1,Yaoyi,220.1086956521739,-21.09571771333333,-0.0075194227180495,0.0058415667215742,0.0490074769651485,0.1559996135939604,0.78622440985,-82.50970451,0.30343807763401104,0.19731071021382324,0.03683633524444464,68.73118075720166
94.0,4.258987124919388,1,Yaoyi,175.78125,-20.19079252333333,-0.06755262734804,-0.021762227242,0.0489852654747565,0.222919213013,0.8310740116499999,-84.943911105,0.22624768946395563,0.26247965369521314,0.07381410645835056,68.26522248528848
95.0,4.228816729545374,1,Yaoyi,243.5461956521739,-20.444643612222222,-0.0291243536074702,0.018813823376742,0.0111740117487524,0.2975004241181188,0.83625349755,-82.47331489999999,0.34425138632162655,0.24419835547597626,0.02309334724041174,70.00015477006754
96.0,4.281246567896024,1,Yaoyi,157.2265625,-20.049802888,-0.01398039772895,-0.0236063053971,0.05673630530901,0.1680117721794,0.7802261487,-84.93474766,0.19393715341959333,0.272633140058544,0.0501743846119402,67.55173582598992
97.0,4.160861800248815,1,Yaoyi,60.12228260869565,-18.568034258888886,-0.0189152358004297,0.0183818882276534,0.0414181499833663,0.1733448170410891,0.7955788326,-81.53497887500001,0.02484288354898336,0.3793439456700428,0.03600073975957771,65.3369909370968
98.0,4.273674178576584,1,Yaoyi,115.234375,-19.796277374444443,0.0287358428125673,-0.1260113670889247,0.0960234327979762,0.3040376816424752,0.8128641857500001,-82.73252979,0.12081330868761551,0.2908909916981832,0.14996425675201303,67.10667212814661
99.0,4.415071069711631,1,Yaoyi,97.82608695652172,-20.27179244888889,0.06497625238063,0.0565215169798,0.099128022378288,0.85760614957,0.76355865675,-81.673558045,0.09049907578558222,0.2566463763935535,0.11971877631190474,65.84748824292953
100.0,4.397033376780061,1,Yaoyi,111.0733695652174,-17.7605039763,-0.7991730409633664,0.5509826084329504,0.0783175196126435,1.1983177891455443,3.3335591095,-14.331396707,0.1135674676524954,0.4374989135360008,0.977726207875665,75.34314597848723
101.0,4.43405867475075,1,Yaoyi,103.515625,-20.31285756,-0.789423933926,0.419669845920943,0.10944244062117,1.020519611098,5.475212434,-7.788143250499999,0.10040665434380776,0.2536890381134056,0.9032457129643997,72.27836724795222
102.0,4.36306857371976,1,Yaoyi,51.97010869565217,-19.765187536666662,-0.593658916230693,0.7006321493673268,0.0751556869599277,1.0079633729613862,6.1580452015,-6.297723621499999,0.010646950092421443,0.2931299523364497,0.9243013310752378,71.12490907848773
103.0,4.281893406759997,1,Yaoyi,67.3828125,-19.952451303333333,-0.4902178256159999,0.7242663703069999,0.16953153937926,0.931916091712,6.7575948095000005,-5.57863091,0.037486136783733824,0.27964399575034504,0.8931993413140727,71.2510454151914
104.0,4.461794819117387,1,Yaoyi,67.2554347826087,-19.100457729,-0.3809473508009901,0.5462940178544554,0.1399463562897623,0.6970833452534654,6.9828612065,-6.4642126935,0.03726432532347506,0.3410010247134093,0.679033822562691,70.26956938353194
105.0,4.499775780263557,1,Yaoyi,58.59375,-18.849853016666668,-0.312771158187,0.441384948266,0.12617448209248,0.567910793748,7.140499503,-5.541043295,0.022181146025878007,0.3590485324131572,0.5516798060718894,69.16564375805056
106.0,4.5010074389046775,1,Yaoyi,57.06521739130435,-19.611021334444445,-0.1990278713432673,0.3220048380551485,0.1325184877260396,0.444564582620792,7.0434085875,-5.0419297400000005,0.019519408502772652,0.3042323601712456,0.3944319000577882,67.19663169257271
107.0,4.639044820613246,1,Yaoyi,61.5234375,-19.706977725,-0.215171694913066,0.260216463565,0.111254720791985,0.370195503095,6.724584239,-5.0404760060000005,0.027282809611829946,0.29732198054882264,0.34803401181171123,66.89779205331617
108.0,4.581771289848068,1,Yaoyi,79.4836956521739,-19.54165105333333,-0.1313068389644623,0.1796127445118604,0.1237716088856623,0.2806538559045544,6.831875149,-6.414040067,0.058558225508317914,0.30922811891348867,0.24527026110808886,66.84406402599294
109.0,4.510599762058902,1,Yaoyi,66.23641304347827,-18.516455151111117,-0.0472781021449702,0.0868292468012871,0.0871229748126257,0.1966534668730692,6.4794658175,-5.088985568,0.03548983364140482,0.38305845820294065,0.12019097038404677,66.26802593433575
110.0,4.256488703765402,1,Yaoyi,59.5703125,-18.827566611,0.01092675803671,0.01829801152823,0.03837520031432,0.1386573448315,6.03294807,-5.1762707015,0.02388170055452865,0.3606535065340503,0.030697862226382346,65.05105898731023
111.0,4.344519084163505,1,Yaoyi,64.19836956521739,-18.699320667777776,0.1182884840790425,-0.0247348679984455,0.0323596145492277,0.3774235647451485,5.522237297,-6.021413643500001,0.03194085027726432,0.36988924526463723,0.1133968257793536,65.98466255495576
112.0,4.230958529895682,1,Yaoyi,59.5703125,-18.80142118666667,0.09639772824856,0.01167924307321,0.18938870127682,0.4318184675429999,5.121940725,-2.2537044661500003,0.02388170055452865,0.3625363911078303,0.20273355992526104,66.44993918378663
113.0,3.9525582367147822,1,Yaoyi,54.00815217391305,-19.486112493333334,0.1804025741679999,0.012304760853328,0.0917144053768911,0.3123783774448515,5.019405283499999,2.33656332,0.01419593345656193,0.3132277747056735,0.19246875494788984,65.58240200518244
114.0,3.943237382703997,1,Yaoyi,57.6171875,-19.038656029,0.15580017202902,-0.05447500100182,0.096231949088458,0.2663175284135,4.5745748805,-1.24087614115,0.02048059149722736,0.34545172576456895,0.1805573717828294,65.99949151338201
115.0,4.279443052630814,1,Yaoyi,62.16032608695652,-18.27650723777778,0.1425529429931683,-0.1331963586759,0.1103435939266435,0.3066889729980198,4.4569017105,-0.3190317225000001,0.02839186691312385,0.4003385076206144,0.21424925414985868,67.08589346290871
116.0,4.6453819504689005,1,Yaoyi,60.12228260869565,-17.246317276666666,0.03206396131926,-0.1704837565158946,0.03950175996109,0.268363534779,4.378213432,-14.33071369,0.02484288354898336,0.47452849823270615,0.1671751583703714,67.52860091673512
117.0,4.396004170590007,1,Yaoyi,58.59375,-16.5748770468,0.0740375415662663,-0.1685514680839306,0.0825386998509108,0.2751174107207921,3.993849059,-9.589554584,0.022181146025878007,0.5228828272699078,0.19145107133403125,68.2498254184287
118.0,4.093452449494233,1,Yaoyi,67.2554347826087,-17.894233005555556,0.1338970679611386,-0.1251224932733663,0.0910163115102277,0.2943987059207921,4.0149720145,-6.067888717999999,0.03726432532347506,0.42786830578446233,0.19436864469836887,67.43465533347
119.0,4.119279458838108,1,Yaoyi,73.2421875,-18.30519473555556,0.0614619705451799,-0.11459939510997,0.0653589837306,0.3318219602509999,3.940734076,-23.48672826,0.04768946395563771,0.39827255350422747,0.13420922634664187,66.80673373193662
120.0,4.09079459739679,1,Yaoyi,65.21739130434783,-16.795905494444444,0.4678047304920791,0.1735834702288713,0.0644526018550297,0.5556044553762376,4.167332735,-0.8963090519,0.03371534195933457,0.506965278978076,0.4983478367798795,70.74467288116264
121.0,4.109051110445503,1,Yaoyi,64.453125,-15.781203107,0.640206644608,-0.0308948434421599,0.03604072870195,0.7191666399269999,3.2149829505,32.896034395,0.032384473197781885,0.5800399190351158,0.6397436700836154,72.72611785304595
122.0,4.2010816174431485,1,Yaoyi,65.21739130434783,-15.98183682,0.8186124513257426,0.0215736940171188,0.1446461398184554,0.8806247131811882,2.47196398,86.84777700999999,0.03371534195933457,0.5655911145953163,0.8328332354889746,74.12406609824228
123.0,4.474924278409845,1,Yaoyi,65.4296875,-16.83082085,0.7242763080269999,-0.06580885242388,0.09479618866631,0.755522609035,2.014729651,86.401416035,0.034085027726432536,0.504450820481421,0.7328701661363005,72.59807172939611
124.0,4.1829306803422845,1,Yaoyi,64.19836956521739,-16.968419042222223,0.4816212477009901,-0.0863383620578119,0.0611314470461437,0.5261893063930694,0.5489702892,86.50093544,0.03194085027726432,0.494541571726757,0.4881499366228512,70.47851535924919
125.0,3.801739878581916,1,Yaoyi,59.10326086956522,-17.038508013999998,0.337810080383,-0.24210081134526,0.08186659737634,0.477388740751,0.2650656904,-6.207756999999994,0.02306839186691313,0.48949405587580086,0.417363712583245,69.67420620851384
126.0,4.101020385210104,1,Yaoyi,68.359375,-17.31679341666667,0.2638975973607723,-0.4210513519019802,0.0153891768784653,0.5364349121435643,1.999182563,-153.14863029999998,0.039186691312384475,0.46945310013880764,0.4922764075725111,70.35538228849347
127.0,4.293155588585341,1,Yaoyi,62.16032608695652,-17.88869240777778,-0.298626233894,-0.0144990303867,0.022033384464868,0.375284248441,1.2237889860000002,-66.060247295,0.02839186691312385,0.42826731656173234,0.2912875586833171,68.0373456064698
128.0,4.394537945260996,1,Yaoyi,63.4765625,-17.140935673,0.0160261620972079,-0.3524603115321485,0.0455037211373118,0.4505640729029703,1.209409671,-63.495470408,0.03068391866913124,0.4821176424506178,0.3482725703889523,69.18527064590165
129.0,4.481679736716443,1,Yaoyi,63.17934782608695,-17.674076654444445,-0.090313029331,-0.3924987322831683,0.0312603959009207,0.4662383605207921,1.324839173,-112.77297395,0.030166358595194082,0.4437230493159459,0.3973774574856905,69.10702342358076
130.0,4.209881641095708,1,Yaoyi,52.734375,-15.885185622222224,-0.0898867871298799,-0.244315573276116,0.0505136107057999,0.43834038606,1.07380050065,-137.187359,0.011977818853974125,0.5725515313402502,0.2560452892007085,69.15853706676815
131.0,4.19818485410176,1,Yaoyi,58.08423913043478,-17.102357372,-0.1562807778391307,-0.1841665941439504,-0.008516498539,0.6776146566227722,1.274921584,-87.93188437,0.021293900184842885,0.4848958910232729,0.23212127004419372,68.10159885632969
132.0,4.109665827972768,1,Yaoyi,91.71195652173913,-15.655285397777776,-0.04974779282883,-0.15808533042375,0.08312433346713,0.4797749427259,0.587843625,135.73189335,0.0798521256931608,0.589107988049317,0.17480546272697944,70.06478207227086
133.0,3.813126820213008,1,Yaoyi,53.7109375,-14.264931145777776,-0.0716590234075346,-0.1154171006460297,0.0159993888335841,0.345607103840594,0.40615529335,-58.173976405,0.013678373382624771,0.6892355109307368,0.12529909658275493,69.54678637148338
134.0,3.5809046260408754,1,Yaoyi,50.95108695652174,-16.998858765555557,-0.1696402621392,-0.12972682713189,0.0592460822942999,0.4289475271586,1.844127033,2.5719554499999973,0.00887245841035121,0.49234942962327644,0.21168749426167713,67.77914227777975
135.0,3.719081883205756,1,Yaoyi,56.640625,-17.102380506,-0.0751674342168217,-0.100781191687299,-0.1021863633617029,0.2931103917723762,0.35850665295,3.3163471049999984,0.018780036968576712,0.4848942250089381,0.1509854598974562,67.40221511865845
136.0,3.519862756617121,1,Yaoyi,50.95108695652174,-19.014749046666665,-0.054978256598385,-0.03313692795226,-0.07126106965477,0.2409773554431,0.78798720945,-91.89430091,0.00887245841035121,0.3471734070678506,0.08366690651959349,65.01286530517798
137.0,3.846285534522969,1,Yaoyi,59.5703125,-18.24149000888889,-0.0502555908308514,-0.1068147612868445,0.0102161162423762,0.2970430788633663,1.12125637215,-121.28394185,0.02388170055452865,0.40286030261046873,0.10665884315707075,66.16522838767277
138.0,3.793596093093227,1,Yaoyi,54.00815217391305,-16.92164854111111,-0.0417452058138217,-0.0074067570786435,0.0091327371803148,0.2016101217771287,0.8759985770000001,-152.2131238,0.01419593345656193,0.49790978843371636,0.03016178346281992,66.5001303980384
139.0,3.7525970094128662,1,Yaoyi,51.7578125,-16.626400816,-0.03147996554094,-0.07864819011499,0.0515484567752,0.1962915070573,1.249313633,-141.07505445,0.010277264325323478,0.5191722999909147,0.08698161709137926,67.13146582312848
140.0,3.710732710154412,1,Yaoyi,81.52173913043478,-15.532603315555557,-0.0526736442674534,-0.082234575888391,0.0327625803364257,0.3976365956006931,1.3896461985,-134.11896159999998,0.06210720887245841,0.5979430406822523,0.09089368303308677,69.14461012990088
141.0,3.729839547923144,1,Yaoyi,57.06521739130435,-15.870088182222222,0.07509967610329,-0.0165895991409,0.107121785971646,0.4818644856415,1.5968710235,-147.0254567,0.019519408502772652,0.5736387860934015,0.12028870610169816,68.23636325198986
142.0,3.736501249527015,1,Yaoyi,62.5,-15.858294605555557,-0.0843564291338415,-0.0520782143583039,0.0199924813447643,0.3768873570791089,1.3322643605,-128.4834239,0.028983364140480593,0.5744881103687411,0.08898518422083962,68.18540608100122
143.0,3.91741725619884,1,Yaoyi,64.19836956521739,-15.217954933333331,0.01146718876998,-0.04156450114237,0.0459787324314,0.2227285180034,1.224146388,-148.9365492,0.03194085027726432,0.620602706767524,0.05018594113493009,68.48753701583502
144.0,3.702977436312291,1,Yaoyi,54.6875,-17.159467842999998,-0.0474869939246663,-0.0085563876085465,0.0564935976910891,0.1915079552871287,1.3470072165,-158.00638125,0.015378927911275419,0.4807830327473369,0.061654789187305555,66.570213264692
145.0,3.773442895661832,1,Yaoyi,51.97010869565217,-16.348115315555553,-0.005298852807494,0.0095783816811379,0.0463384823811899,0.2255261539125,1.0496481506,-147.35172045000002,0.010646950092421443,0.539213262769456,0.034483851041123434,66.9593689634109
146.0,3.683346092590688,1,Yaoyi,55.6640625,-15.883237815555551,0.1293073047142673,0.1087874547682079,0.0568957992850594,0.2785379129009901,1.062535136,174.59571345,0.017079482439926064,0.5726918042644386,0.1675725992614342,68.55447209406326
147.0,3.405704803957412,1,Yaoyi,55.02717391304348,-17.547169763333333,0.1892288318210999,0.1612248009127,0.0919458581511599,0.340514959523,1.10552046015,167.1843835,0.01597042513863216,0.4528623550901823,0.2559178971020047,67.80109994067087
148.0,3.358397826916163,1,Yaoyi,60.12228260869565,-17.444700195,0.3422584800756436,0.2578623864866337,0.1740458127496822,0.513416193730693,1.4036668596500002,141.0214264,0.02484288354898336,0.4602417866510138,0.45700693655497304,69.67581460323161
149.0,3.741755064804287,1,Yaoyi,70.3125,-16.51335674222222,0.400631731091089,0.3483093658089108,0.1947381595008515,0.6002843035227723,1.2258061402,140.29955915,0.04258780036968577,0.5273132633946742,0.5618380817096951,71.67421982180737
150.0,3.619176696349821,1,Yaoyi,56.04619565217392,-16.75246016111111,0.554052126849,0.419009513378,0.2475588432644,0.78033739723,1.8332358205,108.4266421,0.01774491682070242,0.5100940309498607,0.7369791629135021,72.37186001112039
151.0,3.5175777259363894,1,Yaoyi,61.5234375,-16.17121643222222,0.5222346901920791,0.3672723382838614,0.2554848250187623,0.7126796114128713,1.8783701775,90.6770643,0.027282809611829946,0.5519527836240705,0.6862888413948716,72.65940032688442
152.0,3.1239383213250163,1,Yaoyi,65.21739130434783,-15.569659646666668,0.455666692097,0.369973086136,0.2746277387552,0.6833005283439999,1.9341047155,91.85396641,0.03371534195933457,0.5952743980425136,0.6459127908672493,72.98490194263485
153.0,3.0137768171215225,1,Yaoyi,74.21875,-14.348906093,0.4271416536089109,0.2752099798792079,0.2843576696143267,0.6094580795079207,0.9454033016,65.423003695,0.04939001848428835,0.6831879849585867,0.5789638284860024,73.81776681707683
154.0,3.0646295164443886,1,Yaoyi,66.23641304347827,-16.176013453333333,0.356710398058,0.2264595410413999,0.26145332454481,0.519036382498,2.0542581205,92.437816835,0.03548983364140482,0.5516073221415925,0.49199064448877833,71.26500969443744
155.0,3.098683283601693,1,Yaoyi,59.5703125,-16.039352667777777,0.351112065539604,0.1886268722252475,0.2375369355118911,0.4937777492396039,2.571878224,72.95827186,0.02388170055452865,0.5614490627720996,0.45849928753105024,70.88301706460418
156.0,2.8684084236415237,1,Yaoyi,66.23641304347827,-14.653796615555557,0.3378960702649,0.08599665134556,0.1588930216698,0.4887270462124,2.239742363,67.06070684,0.03548983364140482,0.6612310392883767,0.3761951683732762,71.65413049127483
157.0,2.6196680547880766,1,Yaoyi,64.19836956521739,-15.193778791,0.2104408636455901,0.0163174748333584,0.132348368489745,0.3700612661508911,2.071808511,44.357527145,0.03194085027726432,0.6223437718530466,0.23970289422498248,70.02456542158171
158.0,2.64922108228239,1,Yaoyi,52.734375,-17.047604126666666,0.2086724890554148,0.0221549816916306,0.1643061519564059,0.3595719766782178,1.7648389765,23.82763527,0.011977818853974125,0.48883899172373046,0.25740553156832185,68.16486853031083
159.0,3.4174962480056035,1,Yaoyi,47.89402173913044,-17.21984725333333,0.0435177139184874,-0.11029421932163,0.09558697196458,0.223245882494,1.951676579,35.873927187,0.003548983364140489,0.476434759074623,0.14109217811110653,66.91693420106714
160.0,3.754999291450867,1,Yaoyi,49.8046875,-16.289505237777778,-0.0138420079591039,-0.1621890725545544,0.0868342844678514,0.2652373133786139,2.150767082,28.895704715,0.006876155268022184,0.5434341164801807,0.17387387780140237,68.04972352553384
161.0,3.730069006529392,1,Yaoyi,65.21739130434783,-16.574082649999998,-0.11490512071249,-0.26936375618874,0.0600296325765,0.3862156901626,1.6505377315,13.267573865,0.03371534195933457,0.5229400364190543,0.29042055254992255,69.27295169661473
162.0,3.7213408334482585,1,Yaoyi,81.0546875,-17.632212254000002,-0.159739695079312,-0.3837227130712871,0.0400359550432306,0.4394675658217821,1.634371787,8.293391622,0.06129390018484288,0.4467379490851148,0.41122832178529684,69.87655996700062
163.0,3.614398798694468,1,Yaoyi,85.59782608695652,-18.535467812222223,-0.253935083202,-0.400328499903,0.0430657373061,0.4954398997199999,1.7116317515,2.4534881585,0.06920517560073935,0.3816892455309181,0.4707594919302521,69.73045039382782
164.0,3.5840878733974177,1,Yaoyi,56.04619565217392,-17.666057233333333,-0.2796360780748336,-0.3629486690369406,0.0420938275934356,0.7631253857356436,1.4602137885,7.9200128985,0.01774491682070242,0.44430057462623535,0.4545501374290028,69.3229063313609
165.0,3.6314928519646856,1,Yaoyi,63.4765625,-17.444221406666667,-0.28818139240698,-0.3269389405118,0.06612579928723,0.536717707416,1.639273077,-19.661883705,0.03068391866913124,0.4602762669927915,0.43489350862776416,69.61614164631824
166.0,3.587207126614652,1,Yaoyi,63.17934782608695,-16.221158227,-0.2574548634178217,-0.2728628794721386,0.0042059080041544,0.4703764273861386,1.972174825,-19.68799377,0.030166358595194082,0.548356183554586,0.3680555626407759,70.12804587568512
167.0,3.5659344336366363,1,Yaoyi,59.5703125,-16.163761093333335,-0.2920243654564356,-0.217452334560297,0.0268414871388118,0.3990508021881188,1.8593277205,-26.721080505,0.02388170055452865,0.5524896860819238,0.3577783358601016,69.96973693095447
168.0,3.619943693944962,1,Yaoyi,61.141304347826086,-16.916279015555556,-0.1348840888822,-0.14326239681104,0.0316873713995599,0.234606512123,1.6813545365,-21.745965825,0.026617375231053605,0.4982964793019989,0.18895791643391519,68.02356858771638
169.0,3.9256150922154176,1,Yaoyi,54.6875,-16.713321487777776,-0.1060817480346534,-0.1018675417572079,0.0254195485008297,0.2312581645795049,1.5662946275,-7.750414014,0.015378927911275419,0.5129126352042042,0.13798872747768598,67.56644000049745
170.0,3.858691831600827,1,Yaoyi,47.89402173913044,-17.007810536,-0.0966342937985599,-0.0720940971648,-0.01112067911234,0.2255249170252999,1.448969936,-15.54053566,0.003548983364140489,0.4917047603969149,0.10929450330695085,66.8457928185014
171.0,3.7372633453389312,1,Yaoyi,49.8046875,-16.886055232222223,-0.0552298291316039,-0.0569143617546861,-0.053352496602697,0.1623517272024752,1.440500161,-11.666765615,0.006876155268022184,0.5004730703059953,0.08333327159508779,66.80986612179309
172.0,3.858486003239975,1,Yaoyi,58.08423913043478,-16.40357927777778,-0.08271948760032,-0.0141458921828699,-0.06715542964273,0.1562637941054999,1.3210531295,-15.472483061,0.021293900184842885,0.535218979198552,0.09545134032968236,67.61211647671693
173.0,3.988499323524018,1,Yaoyi,61.141304347826086,-17.36950074,-0.0299958848573287,0.0116864322702168,-0.042107108298594,0.1206181915156435,1.183466248,-25.357730555000003,0.026617375231053605,0.46565733822022837,0.039972083663259717,66.44001223256988
174.0,4.019390231709351,1,Yaoyi,55.6640625,-16.980669476,-0.0419202480265269,0.01440416479335,-0.021018892549063,0.1292531556947,0.7657195434999999,-17.5585346945,0.017079482439926064,0.493659346504928,0.03595341059535923,66.55312909162053
175.0,3.8993270425857647,1,Yaoyi,51.97010869565217,-16.234743254444442,-0.046112970612054,0.0009670321368366,-0.0158717805856633,0.1379424619839604,0.8961868205500001,-48.922853425,0.010646950092421443,0.5473778464550076,0.03566897153876795,67.06682493161867
176.0,3.918355031909442,1,Yaoyi,50.78125,-15.298826224444444,-0.0035986257483789,-0.03148791702135,0.05849599562255,0.2239281203691999,0.7356776968000001,-15.660771588,0.008576709796672832,0.6147786931828352,0.053747063408122644,67.97885502139246
177.0,3.900842808391761,1,Yaoyi,52.98913043478261,-15.565939717,-0.0163121254968015,-0.1580206545619801,0.0319330283243465,0.2897070721322772,0.51136758475,-58.74383387,0.012421441774491686,0.5955422918848785,0.15100835773364288,68.60300319997752
178.0,3.802867592356066,1,Yaoyi,57.6171875,-17.43663911222222,-0.0358424897357128,-0.0576849546742079,0.1659906768923366,0.445144037219802,0.5559697162,-31.118498949000003,0.02048059149722736,0.4608223122610301,0.16863443756325822,67.28855507758297
179.0,3.8705539642597535,1,Yaoyi,67.2554347826087,-18.58439533111111,0.00804439244841,-0.10089574383611,0.0035249296378,0.438282521666,1.09227318435,-74.52346756,0.03726432532347506,0.37816568938684103,0.08913230329296883,65.99633320545534
180.0,4.003041911910319,1,Yaoyi,60.12228260869565,-18.87523618,-0.0202534690670297,-0.0779792800703,0.0095203438959297,0.3133879103129703,1.091207625,-62.96913974,0.02484288354898336,0.35722054270204207,0.06861226507714535,65.33240230402133
181.0,4.037472776902596,1,Yaoyi,53.7109375,-16.036078742222223,-0.04690486487967,-0.037476479244467,0.08145338632462,0.7125994677059999,0.60446520415,-84.83692271999999,0.013678373382624771,0.5616848372558358,0.08904236368714868,67.72612442421972
182.0,4.104387456786435,1,Yaoyi,57.06521739130435,-14.888553987777776,0.0146764273436534,-0.0995765512889108,0.0230214316835247,0.6445627670108911,0.8393332604000001,-81.46285882000001,0.019519408502772652,0.644324791024706,0.09114276115284936,68.85142775157472
183.0,4.126145194214431,1,Yaoyi,57.6171875,-15.41228374777778,-0.1151139452461399,-0.03535886479133,0.0549375497429699,0.5676501146802,1.2587502965,-83.286517035,0.02048059149722736,0.6066079548639597,0.12078722373038331,68.65520507815513
184.0,4.019748939911095,1,Yaoyi,82.54076086956522,-17.902723931999997,-0.1053053839793069,-0.0908692674302356,0.007379857716,0.4211627095622772,1.0097971717,-90.85313695,0.06388170055452864,0.42725682462372416,0.12783985190582625,67.42743472182187
185.0,3.877245716432822,1,Yaoyi,58.59375,-17.65714157,0.08438643888358,0.015439677995946,0.07665121430755,0.3535943639106,0.78292839355,-83.35507914,0.022181146025878007,0.44494264356882834,0.10315056663833583,66.60813917645018
186.0,3.94483217840827,1,Yaoyi,48.91304347826087,-16.595062499999997,-0.0892096217457425,-0.0129151019341237,0.0528046182833811,0.2598704851825742,1.02452944265,-96.095471325,0.005323475046210721,0.5214291549959191,0.09238120049079612,67.10266896480161
187.0,4.07266473095042,1,Yaoyi,54.6875,-15.440345047777775,0.0041455362295148,-0.0365813699567574,0.0411892343881277,0.275445841790099,0.77729326665,-101.39367009,0.015378927911275419,0.6045870969036304,0.042254388821553496,67.90065883164151
188.0,4.174762241653939,1,Yaoyi,57.06521739130435,-16.524402332,0.00951154144735,-0.0146813271542609,0.06252000850226,0.2181840426622,0.6781776819,-70.570732245,0.019519408502772652,0.5265178060199638,0.05210888954062354,67.12547295862001
189.0,4.12694674381679,1,Yaoyi,69.29347826086956,-17.32015033333333,-0.0500748782200297,0.0031547158027821,0.0420572911787782,0.1765567171224752,1.16400131545,-72.841346395,0.04081330868761552,0.4692113489808789,0.05266729990008548,66.86814076072353
190.0,3.889134366904328,1,Yaoyi,54.6875,-17.983080375555556,0.013818914055039,0.019032430857533,0.014448019643101,0.2021036664866,0.8468961993999999,-86.180110785,0.015378927911275419,0.42146988821582315,0.014105985821814545,65.47806510338991
191.0,3.923069088251854,1,Yaoyi,48.91304347826087,-16.966772612222222,0.0260421785517821,-0.0023480840495841,0.0063099098829504,0.2236827072393069,0.9593665931,-82.44582076500001,0.005323475046210721,0.494660140758542,0.013388159702470172,66.14949646764649
192.0,3.904599729138021,1,Yaoyi,50.78125,-16.807052397,-0.005943919099707,0.02672018947263,0.01678062015266,0.2416230588877,1.06414483,-95.821753985,0.008576709796672832,0.506162525479043,0.01869282431896109,66.39502709623366
193.0,3.5338775593821734,1,Yaoyi,93.75,-16.268680143333334,-0.0231416353871188,0.0116746955041356,0.0428415301642009,0.1682873630120792,0.5088344885,-89.99015582,0.08340110905730129,0.5449338530527084,0.036987384419361446,68.50312749313342
194.0,3.6173533405445712,1,Yaoyi,78.125,-17.84491116,0.06193461889256,0.028171226470857,0.03935341610148,0.1896766472227,0.5987346665,-102.3080158,0.05619223659889094,0.4314202596928378,0.06604036448190945,66.82921076414715
195.0,3.711038500218636,1,Yaoyi,57.06521739130435,-18.397220945,0.0587783284590099,-0.0367042694589316,0.0589404953391485,0.3053151827868317,0.5391435578,27.898210650000003,0.019519408502772652,0.39164520915757345,0.07863882638729267,65.71924129104468
196.0,3.6390685735076937,1,Yaoyi,48.91304347826087,-17.032109814444443,0.086030065619328,-0.01764060340697,0.077102555036581,0.1643371386087,0.4685855879,-9.636122149999991,0.005323475046210721,0.4899548275614897,0.10500499826197865,66.82596741775792
197.0,3.5716712709017813,1,Yaoyi,48.828125,-15.83430994,0.0437599120911287,0.0032603908043039,0.0514413486406039,0.2317716695721782,0.1854874122,72.17546607,0.005175600739371538,0.5762153860941633,0.05485201573321317,67.4569127737831
198.0,3.535293333373156,1,Yaoyi,50.95108695652174,-15.383921522222222,0.0700006108502574,0.0073390335832316,0.0783887398550495,0.1877259386913861,0.5605349758,64.772242965,0.00887245841035121,0.6086504842295491,0.09328034919223052,68.22749777249946
199.0,3.4311357984929023,1,Yaoyi,78.125,-16.926551444999998,0.06073433389513,0.019928541051299,0.0391592709971789,0.2094349035423,0.31595346811,-100.99555642,0.05619223659889094,0.4975567017145484,0.06233367325347,67.59319453858016
200.0,3.4247181141058167,1,Yaoyi,50.95108695652174,-18.997143781111117,-0.0235830567447991,0.0101546839364851,0.097233013300794,0.2167156018554455,0.34894300825,-14.08807569999999,0.00887245841035121,0.34844126497328076,0.08840804668024706,65.06600872132837
201.0,3.411183122872372,1,Yaoyi,48.828125,-18.698114246666663,0.02399386085628,0.001331161401106,0.00958536985441,0.2572579653524,0.3195904821,60.69225312,0.005175600739371538,0.36997612668873037,0.012342854090735746,64.64196836777808
202.0,3.5370489676653407,1,Yaoyi,46.875,-17.103207288,7.446009467722735e-05,0.0123178667898613,0.0466050644688544,0.1593829461265346,0.44569011635,-42.45504458,0.0017744916820702445,0.48483468361256093,0.035086336932699594,66.13419673245373
203.0,3.62199898870826,1,Yaoyi,53.7109375,-16.419308246666667,0.008014527795165,-0.0059357468843207,0.018981506269723,0.207855067351,0.6413067673,-79.304325015,0.013678373382624771,0.534086244364924,0.00783170717736177,66.74525605745048
204.0,3.5624702122496115,1,Yaoyi,60.12228260869565,-17.464662396666668,0.0096461509345544,0.004699067458582,0.0950610737350297,0.2035426143521782,0.3263350754999999,117.871093885,0.02484288354898336,0.45880419202268957,0.08341670971976096,66.66984165301002
205.0,3.492785601159448,1,Yaoyi,64.19836956521739,-18.047701136666667,0.01030799288736,0.00885124352571,0.03238485066517,0.2323741324937,0.6044736934,90.841587125,0.03194085027726432,0.41681617012386196,0.021760146710464494,65.81469222071534
206.0,3.653391147612129,1,Yaoyi,50.78125,-18.132129318,0.0373673060828019,0.0011794279014356,0.0171871609556336,0.4230755717247524,0.5958135622,41.72795316,0.008576709796672832,0.4107360041185941,0.02789867046888144,65.32355560910764
207.0,3.6762345791106097,1,Yaoyi,47.89402173913044,-14.657637863333331,-0.0145931160978831,0.007103817036,0.047843788414693,0.2640870885780197,0.2340884301,-100.8357119,0.003548983364140489,0.6609544086208982,0.03744517373022012,68.30199396057534
208.0,3.5572383148688487,1,Yaoyi,56.640625,-15.707821745555556,-0.014825708840789,0.0037277859916199,0.075317429334242,0.2600328857165,0.37999472855,-12.047359749999998,0.018780036968576712,0.585324539078194,0.06425989764130904,67.91357438944034
209.0,3.453611315050233,1,Yaoyi,57.06521739130435,-16.814453428,-0.0991670413940693,-0.0212339792889802,-0.0136495086489251,0.4144121790623762,0.6355083020250001,-40.57682074,0.019519408502772652,0.5056295340491734,0.09020366510674688,67.1795718994995
210.0,3.4120382764620603,1,Yaoyi,55.6640625,-17.00964632666667,-0.00604144699966,-0.26341165921244,0.0212240070245099,0.42404063088,1.1162740229,-124.203926145,0.017079482439926064,0.4915725543985387,0.255182359895253,68.28191918074302
211.0,3.624107809161933,1,Yaoyi,56.04619565217392,-11.786979711,-0.0295098582156039,-0.2695004944662376,0.0593045568826831,0.5187596644742574,2.7333809685,-131.78688905,0.01774491682070242,0.8676872534473329,0.2686119023446262,72.91604059653905
212.0,3.8071063764911934,1,Yaoyi,49.932065217391305,-15.237960346,-0.24369919634828,-0.364746410398,0.083652430597153,0.516305707865,3.269343169,-129.4472081,0.007097966728280965,0.6191620002629388,0.44076550418526456,71.098027371203
213.0,3.9273336367532825,1,Yaoyi,58.59375,-16.51102701111111,0.0863870412148812,-0.2519198114650653,0.0819162145335742,0.5516404044811881,3.29596367,-149.3200302,0.022181146025878007,0.5274810409267671,0.26974386512821813,68.9313463326645
214.0,3.9018009890230014,1,Yaoyi,92.73097826086956,-17.29783169888889,-0.104744941777832,-0.2941598526551,0.08657935963448,0.413004244635,4.0433089515,-139.44992705,0.08162661737523104,0.47081864408412566,0.31597697025220106,69.81017183853174
215.0,3.944477481469412,1,Yaoyi,61.5234375,-16.490405594000002,0.0198789259587316,-0.1609634733516931,0.0854245381361782,0.248207340080099,3.309012344,-139.53090874999998,0.027282809611829946,0.528966109505994,0.1726685551303285,68.27459794735115
216.0,3.939415346864519,1,Yaoyi,55.02717391304348,-17.167027961111113,0.087379468509,-0.14045306167109,0.06266506623102,0.2558283127102,3.286101097,-147.50240094999998,0.01597042513863216,0.48023858452626805,0.16613024638673166,67.41131348818172
217.0,4.006304929583296,1,Yaoyi,50.78125,-16.840142513333333,0.1202812640248514,-0.1115714685046435,0.0559041462486534,0.2585897574151485,3.1890964945,-153.77342545,0.008576709796672832,0.5037795131096783,0.16250099002925497,67.51689627348364
218.0,3.974326336199008,1,Yaoyi,52.98913043478261,-15.242067844444446,0.0745148849438613,0.0321426403358415,0.1129258285671584,0.3975860397069307,3.2551171375,-159.38979125,0.012421441774491686,0.6188661953312892,0.1276091797046047,68.69569661710214
219.0,3.899551829730701,1,Yaoyi,57.6171875,-16.733390041,0.08660721175503,-0.06921294552011,0.024753614442,0.6549619513213,3.104607444,-162.19879325,0.02048059149722736,0.5114673815797666,0.10167682391562151,67.36063500022672
220.0,3.88631305750204,1,Yaoyi,82.54076086956522,-15.284981621111111,0.0432884825027821,-0.1325344288930792,0.0006857915554158,0.634789167120792,2.640346583,-169.12610030000002,0.06388170055452864,0.6157757238568871,0.1279817201531358,69.6907964585983
221.0,3.846028096542802,1,Yaoyi,59.10326086956522,-18.991064833333333,0.2843854713249999,0.2288543481138,0.16286225783281,0.845684370857,3.103248496,-165.2076804,0.02306839186691313,0.34887904547550846,0.3930497861041949,67.79231467187792
222.0,4.003617313718396,1,Yaoyi,48.828125,-14.840846689,0.1690872005620792,-0.1249148735127386,0.0225740386371485,0.6498235815792079,3.318519278,-166.79812205000002,0.005175600739371538,0.6477604719981781,0.20130967813089076,69.4871151038127
223.0,4.110771100918321,1,Yaoyi,52.98913043478261,-15.649834617777778,0.11742596647697,-0.017850754895822,0.08259201464917,0.3998934205383,2.9129497375,-160.68348129999998,0.012421441774491686,0.5895005305242915,0.13331988434353134,68.38899427652959
224.0,4.183454491918792,1,Yaoyi,63.4765625,-16.69799462888889,-0.0754663926553991,0.136871142755198,0.0189043434584504,0.3148471430187128,2.396721096,-163.4057441,0.03068391866913124,0.5140164117502821,0.14632236887664776,67.9524542653992
225.0,4.073924833804568,1,Yaoyi,65.21739130434783,-17.083137742222224,0.0005487407202399,0.0565218444230029,0.05993355113357,0.1634735164117,2.441747683,-163.1701675,0.03371534195933457,0.48628000871671573,0.06989177460060665,67.06880114059213
226.0,4.158616288519437,1,Yaoyi,58.59375,-18.425794003333333,-0.005816797827297,0.0512433084018019,0.0378548625552871,0.15257682576,2.313494716,-157.4043262,0.022181146025878007,0.38958749649337476,0.051144539696157905,65.52782919600732
227.0,4.1229281452526525,1,Yaoyi,47.89402173913044,-16.619224413999998,0.0190293584499514,-0.0304054972367821,0.0830911690978019,0.3745512393009901,2.5513552195,-162.38653004999998,0.003548983364140489,0.519689114575707,0.07816002785728372,66.93252926504957
228.0,4.0817332887900415,1,Yaoyi,49.932065217391305,-16.03680613888889,0.038130150085677,0.0205258910948849,0.0428529980581,0.4254338671749,2.4855608145,-157.4238198,0.007097966728280965,0.5616324531772597,0.04803720108086514,67.26584638133966
229.0,4.0873943622847735,1,Yaoyi,77.1484375,-16.762340545555556,0.1458252004600594,-0.1789652279742098,0.0894600374364851,0.3785156469334653,3.551192302,-166.875734,0.05449168207024029,0.5093824868105772,0.23812206832320534,69.10740002971738
230.0,4.287860357202442,1,Yaoyi,47.89402173913044,-18.72316783333333,-0.0212376345107765,-0.0745007823429,0.035419900576018,0.5025164974121,3.710967292,-165.71879165,0.003548983364140489,0.3681718717165749,0.07274158292636833,65.07097479129266
231.0,4.176737631062241,1,Yaoyi,47.8515625,-17.947482417,0.1315408377959406,-0.0955371843536108,0.0872622659135762,0.3087989012452475,3.7345465475,-168.00079065,0.003475046210720891,0.4240335049377313,0.1738958432556435,66.54906972951234
232.0,3.9482215835780994,1,Yaoyi,49.932065217391305,-19.851592936666663,0.0131947362080309,-0.10287294783432,0.04919818013717,0.1775538772819,3.625597147,-170.0057542,0.007097966728280965,0.2869073952772447,0.10289598200354544,64.40801593392092
233.0,3.9163122446676826,1,Yaoyi,54.6875,-20.17615174222222,0.0321835977969405,-0.0399754629562594,0.0732105383012574,0.1850704873939604,3.609400602,-166.668734,0.015378927911275419,0.2635340217770136,0.07704409418975389,64.0863395730677
234.0,3.929170278946071,1,Yaoyi,50.95108695652174,-20.539306584444446,0.1125267012414,-0.264294339347,0.07950219386445,0.348284057506,4.5391763235,-168.391663,0.00887245841035121,0.23738112245527707,0.28951779518803156,65.3421649991746
235.0,3.884881326300324,1,Yaoyi,46.875,-20.412647732,0.1169763880681475,-0.212585232650594,0.0843656305378019,0.2749563956980198,5.034878445,-169.1022762,0.0017744916820702445,0.246502565517736,0.24760341401504735,64.97434793197462
236.0,3.685587859776006,1,Yaoyi,48.91304347826087,-20.500621565555555,0.1300291347595999,-0.252996843542,0.1042331444988,0.317058487178,5.828940926,-171.28969655,0.005323475046210721,0.24016705640584668,0.29450817832852694,65.3445396044226
237.0,3.3194922876874027,1,Yaoyi,52.98913043478261,-20.53651048888889,0.0557048021483455,-0.1423916175529465,0.0790501583601188,0.2186215408556435,5.889422549,-169.49650755,0.012421441774491686,0.23758248561241121,0.1612813689990685,64.38966961483132
238.0,3.304338075364205,1,Yaoyi,46.875,-20.72154427222222,0.0926906009310277,-0.1954329905431584,0.1035443473552901,0.2677343137059406,5.9810966830000005,-171.1266475,0.0017744916820702445,0.22425712313885954,0.23020400709483183,64.56820736806637
239.0,3.502604093344297,1,Yaoyi,46.875,-19.226285078,0.052081252872576,-0.061943417126808,0.09012654962738,0.1475194253232,6.0551030225,-170.6757376,0.0017744916820702445,0.33193946306609323,0.10934842070964546,64.8935507561117
240.0,3.4426648040405845,1,Yaoyi,46.875,-20.622583656666663,-0.008790049457,0.0116283970270425,0.0912000530295953,0.108068614210594,5.418908611,-170.63555680000002,0.0017744916820702445,0.23138385453421803,0.08004893808098738,63.45248759269992
241.0,3.6540289520088702,1,Yaoyi,52.98913043478261,-20.65247052,-0.20363246086649,0.3824539839351,0.00454339181467,0.4809486201069999,4.4807043,-168.442708,0.012421441774491686,0.2292315271054652,0.42725996685829704,66.4172868956218
242.0,3.787823179919173,1,Yaoyi,358.3984375,-21.163441572222226,-0.2507054325206733,0.7565183528643564,0.0373420385844257,0.8377171158148515,0.9221572687,-74.222687165,0.5442513863216266,0.1924335199432417,0.7984927959711943,79.58217233352099
243.0,3.65132374847944,1,Yaoyi,49.932065217391305,-21.3144975,-0.14221849340084,0.532618541362,0.030627101628565,0.56410023654,0.870714516,-80.41311182499999,0.007097966728280965,0.18155510112071033,0.5482597431686411,66.70669849336328
244.0,3.4936450879385417,1,Yaoyi,60.12228260869565,-20.264642633,-0.0899159118435742,0.3859746422564356,0.0078400741103396,0.4257026204811881,0.8278956387,-76.73497077,0.02484288354898336,0.2571612763573452,0.3896590012135689,66.70006499697637
245.0,3.659765179619455,1,Yaoyi,72.265625,-20.25149163,-0.15633164300127,0.3258561543959,0.011452695715273,0.388938830398,0.8630391793500001,-79.74274038499999,0.04598890942698706,0.2581083568239976,0.35423110933989777,66.85092734514689
246.0,3.639954426873652,1,Yaoyi,79.4836956521739,-20.09008079666667,-0.0866891258864158,0.2045865766985148,0.0152888421317504,0.2366540303718812,0.9367816293,-76.10771145499999,0.058558225508317914,0.2697324928200172,0.2128046502048338,66.11039162564524
247.0,3.6532246915867743,1,Yaoyi,68.359375,-19.563651406,-0.09066239723717,0.19874646414843,0.0018681561560699,0.7110080927760001,0.8408143583000001,-77.67349548,0.039186691312384475,0.3076437451383426,0.20846255872251787,66.14315923768794
248.0,3.746909790429832,1,Yaoyi,94.76902173913044,-20.341380006666668,-0.0291560532734356,0.2260308055454744,0.0832128896025346,0.3483642945392079,0.9343190699,-80.902566475,0.08517560073937154,0.25163497029065995,0.23306924816973693,66.58768564363325
249.0,3.736712315212439,1,Yaoyi,56.640625,-20.555541584444445,-0.065657792602995,0.1529627388467228,0.0682225680943653,0.277172785040594,0.8730242803,-78.61756765999999,0.018780036968576712,0.2362119453684725,0.16919492231492764,64.56370346231263
250.0,3.538057872873177,1,Yaoyi,55.02717391304348,-20.54042317333333,-0.0179997390276569,0.0948753128261,0.03763291382947,0.1630402579101,0.8373820615500001,-78.82643118499999,0.01597042513863216,0.23730071037370862,0.09153987117721009,63.89933599667483
251.0,3.726197376718917,1,Yaoyi,46.875,-20.473945309,-0.029975300200215,0.0784624858025049,0.0491797266739505,0.1543056654098019,0.8906072881,-78.78142752,0.0017744916820702445,0.24208816930553725,0.085114640671706,63.6214649906815
252.0,3.6790730991286287,1,Yaoyi,46.875,-20.217434941111108,-0.0445962357693637,0.07270561283726,0.03621540257107,0.2316119563855999,0.9005252403,-81.74142369500001,0.0017744916820702445,0.260560977723371,0.08036019761236818,63.805103147220805
253.0,3.426419302509251,1,Yaoyi,46.875,-19.527282084444444,0.0009010530359148,0.0459712830119405,0.0862083776604752,0.4510609236730692,0.9314372689,-79.762812925,0.0017744916820702445,0.31026291221104907,0.0854933432684706,64.44259152632176
254.0,3.810613891474993,1,Yaoyi,46.875,-19.480827753333333,-0.02465463715714,0.0223784880973199,-0.01485162954855,0.3264352421038,0.8964865777,-82.749663935,0.0017744916820702445,0.3136083596713477,0.023123697944082956,63.983779733250245
255.0,3.769843963634782,1,Yaoyi,46.875,-19.031977602222224,-0.034731489094794,-0.1758721078829405,0.0464686275049306,0.4501499758613861,0.8693647306000001,-80.184648855,0.0017744916820702445,0.34593267824775203,0.17458876279486363,65.58339207497335
256.0,3.6931819919675553,1,Yaoyi,46.875,-18.90915635,0.0140496839248499,0.25978515251,0.037002525516,0.8633509384065999,0.8618178741,-83.89905117,0.0017744916820702445,0.35477775332449246,0.25360251451080573,66.32164298962176
257.0,3.7859900592318265,1,Yaoyi,47.89402173913044,-18.683811834444445,-0.0563501259807521,-0.0276013320900396,0.0847760356069207,0.3819515883842574,0.8249869228,-81.00420808999999,0.003548983364140489,0.3710061268523431,0.09340306568896392,65.27027771502264
258.0,3.73349267765811,1,Yaoyi,46.875,-18.35837303222222,0.0444696482860891,0.0188425836441584,0.0189120316851188,0.5619266672422772,0.9282732279,-81.13870324499999,0.0017744916820702445,0.3944428740476237,0.03881577989588525,65.07933056137998
259.0,3.742397582321628,1,Yaoyi,48.91304347826087,-19.012448934444443,-0.00638194498362,-0.0026490510832999,0.04563440160092,0.3456274678577,0.89155499825,-86.882904165,0.005323475046210721,0.34733905157091816,0.03299780177292216,64.5385205339586
260.0,3.700543047501808,1,Yaoyi,331.1820652173913,-16.836773267999998,-0.0065868515268633,0.0244969586442405,0.0759030537449604,0.1996102012057425,0.8118291126999999,-82.604660055,0.49685767097966727,0.5040221521268362,0.06749476378677044,76.52537735540955
261.0,3.6723379761581154,1,Yaoyi,620.1171875,-17.93232858333333,-0.007157801068332,-0.01886532574917,0.0308223869344,0.1930558794802999,0.86935159715,-80.996275815,1.0,0.4251248209278957,0.02351181438887198,85.28959236624573
262.0,3.4417177682978823,1,Yaoyi,46.875,-19.03611223111111,0.0109103775786945,0.0272787076257732,0.0355154494651881,0.1234413073514851,0.8342848699000001,-82.72367658499999,0.0017744916820702445,0.3456349194944826,0.03293450246165388,64.44658488726843
263.0,3.575283813574456,1,Yaoyi,70.3125,-17.686833215,0.01192998967619,0.00057986965598,0.046739414263621,0.1396916371574,0.8876247103,-82.200657525,0.04258780036968577,0.44280437495142533,0.035122936904543225,66.44639200204716
264.0,3.5230059551757447,1,Yaoyi,46.875,-18.130043145555558,0.0129282618325326,-0.007256806391396,0.0399025401111782,0.099427609759901,0.9418413805,-83.06272324,0.0017744916820702445,0.4108862415698517,0.029345140408257506,65.20088585574568
265.0,3.54963577496692,1,Yaoyi,46.875,-16.747205255555556,0.018201009692413,-0.0032278189052181,0.0444217592430883,0.0776845242024,0.8135427609,-77.40839004,0.0017744916820702445,0.510472467363096,0.03499351798276878,66.4411075858607
266.0,3.543943535153253,1,Yaoyi,46.875,-17.24202140111111,0.0126353850762435,0.0040496918262868,0.040299803413192,0.0986285190035544,0.88143921085,-82.29151027500001,0.0017744916820702445,0.47483786929937205,0.02920272171025526,65.9671660389159
267.0,3.3750157327843717,1,Yaoyi,46.875,-19.60799551,0.007874227510752,-0.009171920819474,0.03254546783203,0.1224741852564,0.878353548,-81.7782853,0.0017744916820702445,0.3044502674462157,0.02135123338927293,63.85970291011018
268.0,3.1816524387494303,1,Yaoyi,48.91304347826087,-17.760579274444446,-0.039569944981297,0.4049323160562376,0.0287496246555785,0.4759102680165346,1.852318396,-28.42796889,0.005323475046210721,0.4374934908772288,0.4013583351885424,68.5672580729593
269.0,3.190975722903567,1,Yaoyi,46.875,-19.24324692444445,-0.070232341507594,0.4985597295792079,0.0366330607934455,0.5720511720465347,3.876836806,-11.80378371,0.0017744916820702445,0.330717941525425,0.5000752630229742,68.0047072361303
270.0,3.2302535702122968,1,Yaoyi,65.4296875,-18.82265321222222,-0.0420842346474475,0.46100686827,0.032384482295402,0.480825806353,4.589149655,-10.5416465415,0.034085027726432536,0.3610073490514088,0.45856907121551704,68.6823413128697
271.0,3.2981362254268323,1,Yaoyi,50.95108695652174,-17.891137884,0.0001545582627821,0.5144166133336634,0.0401084605174851,0.5395673863881189,5.2122069045,-8.836798944,0.00887245841035121,0.428091203548776,0.5114448667110948,69.40610254448109
272.0,3.392692179594665,1,Yaoyi,46.875,-20.178085300000003,0.0076923812961499,0.411603899635,0.05589486758547,0.435816043524,5.678633774,-8.164454639999999,0.0017744916820702445,0.2633947749984613,0.4090748051462462,66.46882557479292
273.0,3.428872875247229,1,Yaoyi,50.95108695652174,-17.504818203333333,-0.0536741260239346,0.3097365560811881,0.0495784836235673,0.3341189639643565,5.9550831695,-8.694491044,0.00887245841035121,0.45591233806169035,0.31007580479097996,68.12900366327514
274.0,3.376250602304684,1,Yaoyi,46.875,-19.34317260888889,-0.00925580543175,0.27776347041,0.06255332009245,0.308039977559,6.015768801,-8.3604701925,0.0017744916820702445,0.32352170988786955,0.27609531427763523,66.12651286651692
275.0,3.2960961347333453,1,Yaoyi,47.89402173913044,-19.702406057,-0.0759227439517128,0.2452178857597723,0.0687804677272376,0.2905581297673267,6.2200681035,-9.9978082915,0.003548983364140489,0.29765121303875663,0.25663118637147914,65.69584371471973
276.0,3.1655299671929167,1,Yaoyi,61.141304347826086,-17.36745784888889,-0.03997590337067,0.1934445427473999,0.05898878726309,0.2693262383481,6.68824686,-11.09238427,0.026617375231053605,0.4658044587301111,0.1959317685938873,67.6894551581335
277.0,3.1394114886135243,1,Yaoyi,54.6875,-18.995091745555555,-0.0805106669157326,0.1691200401313316,0.0758425032179603,0.2506405762867326,6.6856658055,-12.49180747,0.015378927911275419,0.3485890440279694,0.19178356006232825,66.02491556705976
278.0,3.2587455453074687,1,Yaoyi,52.98913043478261,-19.663782363,-0.1243692975223999,0.13602804033922,0.07892438371287,0.2312865933709,6.7425046995,-11.242271595,0.012421441774491686,0.3004327306262255,0.1901766881462192,65.37503510817429
279.0,3.432659444703269,1,Yaoyi,63.4765625,-16.863982074444444,-0.089650503975792,0.0074978889741782,0.0924650431396435,0.2598585062209901,6.497584225,-14.859840655,0.03068391866913124,0.502062687202035,0.11737262250027736,67.57741159980927
280.0,3.859655319263973,1,Yaoyi,68.27445652173913,-17.356629193333333,-0.1707377085305287,-0.0584003139268316,0.0595183160339667,0.3043455636837623,6.0484864785,-17.403417445,0.039038817005545276,0.4665842934055935,0.17949532393642478,67.81575045246943
281.0,4.030023630818689,1,Yaoyi,53.7109375,-16.173322405555556,-0.11609747542604,-0.119573595430136,0.07534964164899,0.2801678882434,5.138427777,-17.69564939,0.013678373382624771,0.5518011201952588,0.17225776139813964,68.27324300118072
282.0,4.139414696123316,1,Yaoyi,47.89402173913044,-15.732554511,-0.1521137571471386,-0.1441235304452376,0.0318472537290495,0.3126239204041584,5.7348028105,-22.360216085,0.003548983364140489,0.583543388314353,0.2018403761346398,68.68822333613217
283.0,3.9657417970293176,1,Yaoyi,53.7109375,-16.142059115555554,-0.00202600613663,-0.09085435694448,0.02022876414579,0.3622043514792,5.132264966,-25.95689773,0.013678373382624771,0.5540525721402008,0.08080607931705984,67.56864696787139
284.0,4.025771887568366,1,Yaoyi,58.08423913043478,-15.768511007777777,0.1268728602595534,-0.0914052827028069,0.0476247436168316,0.3328279572377228,4.782955137,-18.249458765,0.021293900184842885,0.5809539511628691,0.15245825099253085,68.61699142559154
285.0,4.097456298913488,1,Yaoyi,64.19836956521739,-17.41456370111111,0.05493842243955,-0.09271548804313,0.135383150931568,0.3598785051605,4.2491922485,-17.0480726505,0.03194085027726432,0.4624120914327519,0.1622126834858602,67.48546357062519
286.0,4.089660263460089,1,Yaoyi,57.6171875,-18.793258114444445,0.0532232781992207,-0.0552863645774871,0.0644054478245782,0.2979510674673267,4.0652439345,-11.147073315,0.02048059149722736,0.3631242615728846,0.08802163037465804,65.47127601181643
287.0,4.066677234787977,1,Yaoyi,60.12228260869565,-16.828276903333332,-0.229843699920535,-0.11695818100041,-0.00721623594954,0.396153705728,4.671683156,-33.07910005,0.02484288354898336,0.5046340249256908,0.24872267328572287,68.54224735637374
288.0,4.071555423700897,1,Yaoyi,63.4765625,-16.12778255888889,-0.2752844842995049,-0.1488536201720495,0.0803099496506633,0.5543603977376238,4.0503720405,-32.34185573,0.03068391866913124,0.5550807102943821,0.3150188133334712,69.79479740358298
289.0,3.912608713677403,1,Yaoyi,63.17934782608695,-10.2276937629,-0.2030008179598317,-0.3223682135605643,0.0815862984156435,0.5472105855643564,5.824309708,-50.233072575,0.030166358595194082,0.9799805335394193,0.38274566494379686,75.42505889392729
290.0,3.745611402126082,1,Yaoyi,67.3828125,-13.995307163666666,-0.1979745312808,-0.683422238038,0.0273329966777959,0.762948619772,3.8354490625,-81.840239395,0.037486136783733824,0.7086527072311583,0.7111100761997574,74.94243583204664
291.0,3.816682262448125,1,Yaoyi,55.02717391304348,-16.774973362222223,-0.0935502689980693,-0.4450535407613861,0.1304884733966247,0.531262649609901,4.179160595,-93.28697256,0.01597042513863216,0.5084727239655835,0.46781002425187224,70.16356138437462
292.0,3.966542934048803,1,Yaoyi,56.04619565217392,-16.940304943999998,-0.1275489432253199,-0.3628169501567,0.11385503606226,0.457451023283,4.284478482,-93.062867825,0.01774491682070242,0.4965662319951649,0.39444139935323164,69.46922431518188
293.0,4.035620998585967,1,Yaoyi,52.734375,-16.419209381111113,-0.0571170165364544,-0.3382107667524752,0.0397895035895861,0.472319500730693,3.8154052365,-86.71538514,0.011977818853974125,0.5340933642504939,0.3376341282272017,69.34974977390303
294.0,3.883030297363078,1,Yaoyi,57.06521739130435,-15.89114181888889,-0.09615724944458,-0.08656879956473,0.05164490075232,0.2727643090052999,4.268873297,-77.66310248,0.019519408502772652,0.5721225908618289,0.12786419424409762,68.27877281435018
295.0,3.9583470798360754,1,Yaoyi,61.5234375,-15.654262884,-0.0750897581523118,-0.0919434063729534,0.0610193947066146,0.2232587568455445,3.8163353545,-70.21347001999999,0.027282809611829946,0.589181625233174,0.12192045647916093,68.59119934686797
296.0,4.002666717387128,1,Yaoyi,51.97010869565217,-16.363974648888888,-0.072673052366225,-0.060295616571511,0.0817095294735739,0.2282895786086,4.163526552,-73.76626344499999,0.010646950092421443,0.538071139631462,0.11316159468746978,67.57508543492573
297.0,3.9811171217630017,1,Yaoyi,56.640625,-16.07558383222222,-0.0456008717569495,-0.0881932852062673,0.0345968866231346,0.2172045609146138,4.3193856175,-78.506962,0.018780036968576712,0.5588398451991586,0.09306601654182228,67.82620701409601
298.0,3.7982427363524174,1,Yaoyi,62.16032608695652,-16.378190432,-0.01126607159353,-0.150902757628213,0.05299015211355,0.2901467141256,4.654871866500001,-81.372071395,0.02839186691312385,0.5370473781356507,0.1492715365370511,68.2065781681867
299.0,3.847727035577104,1,Yaoyi,59.5703125,-15.203390893333337,-0.0408145508869,-0.2735709230091881,0.1168596036802871,0.4924979249910891,3.676232428,-89.775374595,0.02388170055452865,0.6216515482741024,0.29177924746961187,70.2716865701367
300.0,3.8890981637728874,1,Yaoyi,69.29347826086956,-15.790032067777778,0.0434150537306732,-0.1724693679531507,0.0843850363527722,0.6628784647730693,3.7508836735,-90.080276445,0.04081330868761552,0.5794040940494875,0.18646306983458888,69.26081986102287
301.0,3.913199057856645,1,Yaoyi,60.12228260869565,-14.920756889888889,-0.1746942551176,-0.22263221191151,0.12854960940545,0.7497069072710001,5.6388765995000005,-100.11827943,0.02484288354898336,0.6420056721286833,0.3025197979255549,70.6210841199283
302.0,3.958030440588853,1,Yaoyi,52.734375,-15.736066099,0.0511879514427633,-0.1967461693397723,0.1124762529401683,0.3969413745120791,4.8788821565,-92.676714665,0.011977818853974125,0.5832904983711502,0.2225969806369591,69.01981820262895
303.0,3.919058950134082,1,Yaoyi,50.95108695652174,-16.121899688888888,0.01313173538492,-0.14775861493474,-0.00958500732995,0.3153741754446,3.8253290145,-88.13474231000001,0.00887245841035121,0.5555043700916504,0.1373749057432372,67.94250085525273
304.0,3.9026193503766913,1,Yaoyi,53.7109375,-16.001877316666665,-0.0744496711253257,-0.1646649662824257,0.0675900151480297,0.3744726010719801,4.624381048,-90.850279355,0.013678373382624771,0.5641478814871641,0.1824771798204874,68.50315948406237
305.0,3.946425058120458,1,Yaoyi,60.12228260869565,-16.713684073333333,0.01326644645914,-0.123289271102231,0.0632541615064599,0.2928540039436,4.245830644,-90.74436606,0.02484288354898336,0.5128865233025373,0.12775363389232394,67.6735250217487
306.0,3.897658312763106,1,Yaoyi,57.6171875,-16.745764953,-0.0082967170514752,-0.1047784456426336,0.0672189427390297,0.2573482944588119,4.2625596345000005,-92.36300759,0.02048059149722736,0.5105761919547822,0.11304885480351817,67.44091697183008
307.0,3.897289772732188,1,Yaoyi,55.02717391304348,-16.271525212222222,0.00564624246587,-0.08412826969857,0.05519448224683,0.1938571630142,4.058024827,-94.25681708,0.01597042513863216,0.5447289630400648,0.0886221932681897,67.56513360539894
308.0,3.899964035744323,1,Yaoyi,58.08423913043478,-16.136864253333336,-0.0034636199034356,-0.1109277105010891,0.023618044517792,0.2625660310492079,3.94709975,-91.203606955,0.021293900184842885,0.5544266844826291,0.10154578954689725,67.89136453386358
309.0,3.9643570610912944,1,Yaoyi,62.5,-14.998054315555557,-0.009323503762217,-0.059301936355668,0.05976964198424,0.2281926607443,4.06504881,-91.228551865,0.028983364140480593,0.6364390334493821,0.07226256289536932,68.79503618736516
310.0,3.950378240403032,1,Yaoyi,54.00815217391305,-16.894963229,0.0705833785192821,-0.0427278799758059,-0.0225918639577326,0.1864321834323762,3.6887819355,-91.42047694,0.01419593345656193,0.499831553476805,0.07311202220191171,66.86679348846819
311.0,3.970720891666504,1,Yaoyi,46.875,-17.275612036666665,0.1486390137858514,-0.0115908472999415,0.0525344421824158,0.2088194814321782,3.0233221095,-96.19117081,0.0017744916820702445,0.47241881162011357,0.146972773360409,66.88029775996604
312.0,4.255353021237058,1,Yaoyi,57.06521739130435,-16.524622656666665,0.2475478665815,0.04218754252643,0.15317696490852,0.322527853864,2.254439887,-94.56757271,0.019519408502772652,0.5265019391550472,0.28554300635158103,68.99275549072867
313.0,4.2699351637143845,1,Yaoyi,63.4765625,-15.801713248888888,0.2595148577531683,0.0181186542530594,0.1397728097724752,0.5907695843980199,1.3768244245,-96.703746865,0.03068391866913124,0.5785628640339701,0.2867346426312233,69.85030988284005
314.0,4.15689626477033,1,Yaoyi,50.95108695652174,-15.627555744,0.3171293293936,-0.00893224610169,0.1171901007556,0.549486027001,0.87031102955,-85.27150004,0.00887245841035121,0.5911049622299146,0.3304114611388767,69.91400040407702
315.0,3.931347261062859,1,Yaoyi,46.875,-16.584346214444444,0.2115928874275247,-0.0375994333069594,0.0699598916483564,0.3091216870198019,0.49971401385,-69.410809255,0.0017744916820702445,0.5222008972519837,0.21615257970374602,68.03112123829517
316.0,3.753150905039732,1,Yaoyi,49.932065217391305,-15.83213529,0.1908569722068,-0.08559465343885,0.076087074940329,0.2790493921366,1.5439164335000002,-102.31454665,0.007097966728280965,0.5763719953304934,0.21266206454255526,68.75971979487198
317.0,4.0221960829897405,1,Yaoyi,60.12228260869565,-16.009728771111114,0.1153595945863069,-0.2523636826179208,0.0278158532630019,0.3517818960990099,2.05920558,-137.9798305,0.02484288354898336,0.5635824524366843,0.2699857250385285,69.4197329005281
318.0,4.097463450385853,1,Yaoyi,52.734375,-17.15804941111111,0.07973611611694,-0.15241045194667,0.0594418646129557,0.252100215278,1.822252441,-157.10479759999998,0.011977818853974125,0.4808851823046932,0.17132588297924156,67.38078562856974
319.0,4.103613467570365,1,Yaoyi,47.89402173913044,-17.228254204000002,0.0555793174989009,-0.0987723333517128,0.0453635905876831,0.1581118070414851,2.011545871,-143.71866690000002,0.003548983364140489,0.47582932549966955,0.11031420375422027,66.6634452033126
320.0,3.832412847932949,1,Yaoyi,50.78125,-16.465429486666668,0.0711927828611584,-0.0874103119179505,0.0452422927058247,0.1392876396452475,1.9362449345,-159.28666265,0.008576709796672832,0.5307647847392375,0.10969934751090525,67.41830639289155
321.0,3.753569660590671,1,Yaoyi,81.52173913043478,-15.583267523333337,0.007769313844289,-0.04830776613819,0.0628521888242,0.1429149313367,1.9056138165,-150.98059755,0.06210720887245841,0.5942944154371097,0.06710981645879728,68.91055569436486
322.0,3.845592665901757,1,Yaoyi,51.7578125,-16.150156485,0.0209158985363306,-0.0984871339633544,0.0593288546663257,0.2501335347153465,2.2689849565,-143.34150095,0.010277264325323478,0.5534694333155725,0.10500472068372525,67.68721625176315
323.0,3.890336073920668,1,Yaoyi,61.141304347826086,-15.079840487777776,-0.00367908416925,-0.07577451933729,0.06179211786581,0.2582736332633999,2.584814517,-158.29318915,0.026617375231053605,0.6305491339372368,0.08563668027887629,68.78403055409892
324.0,3.931513061071088,1,Yaoyi,62.16032608695652,-14.375240095555556,-0.0034949994756732,-0.0631849920764366,0.0288990760178693,0.2129415870631683,2.3115367715,-158.26723325,0.02839186691312385,0.6812915197666057,0.05684104301134966,69.19806391955254
325.0,3.953420127533327,1,Yaoyi,65.4296875,-12.8383434613,0.02175644863494,-0.06580930850704,0.0229273243355959,0.2600143036966,2.6407264275,2.026890350000002,0.034085027726432536,0.7919724147194125,0.06034204889507786,70.66810592232223
326.0,4.022052134232741,1,Yaoyi,52.98913043478261,-11.830870761,-0.0286210409119603,-0.0873626961848415,0.1662927984712574,0.3262378472231683,2.2560670535,-152.91703795,0.012421441774491686,0.8645264028174717,0.17949614866241392,72.0587148585988
327.0,4.059897754096967,1,Yaoyi,48.828125,-15.575107875555554,0.03621113848982,0.017828299394568,0.0628538611276,0.2248684496297,1.721732926,-165.98476184999998,0.005175600739371538,0.5948820392879369,0.0620645423484251,67.73861282503007
328.0,3.933102928995557,1,Yaoyi,49.932065217391305,-15.727729392222225,-0.019231926478393,-0.0533278594169049,-0.0651832953919732,0.2292971986131683,2.203945447,-145.912999,0.007097966728280965,0.583890873273767,0.073967969628143,67.74039357087597
329.0,3.7773326019991416,1,Yaoyi,57.6171875,-15.8634165,-0.01202091205221,-0.0031619666506709,-0.0318486843805,0.1339885175076,2.3789943905,-152.465791,0.02048059149722736,0.5741192528617823,0.020811864005890118,67.46553777633305
330.0,3.758009964397643,1,Yaoyi,63.17934782608695,-16.275743002222224,-0.0059239415421376,0.0462803268983554,-0.0454011285546435,0.1448536423267326,2.6322784205,-155.25578095,0.030166358595194082,0.5444252153699104,0.05229264661031256,67.5547709292253
331.0,3.795141928409312,1,Yaoyi,57.6171875,-16.05690168,0.0003861101759198,0.0711251447572079,-0.0377189929468772,0.1500208312931683,2.6084822605,-163.80823195,0.02048059149722736,0.5601852559974598,0.06798254727332852,67.6756952801007
332.0,3.8684500000809856,1,Yaoyi,52.98913043478261,-14.878107482222225,-0.02007512855355,-0.0839872450860799,0.01045145943879,0.2104672450133,3.44307709,-164.56470455,0.012421441774491686,0.6450771048487114,0.07457598581482962,68.585961980193
333.0,3.954134817993382,1,Yaoyi,68.27445652173913,-14.756076931111112,0.0169576461611386,-0.1837199905246534,0.0946278182086564,0.2738824337079208,4.4267212925,-167.98618905,0.039038817005545276,0.653865236924428,0.19715447150967635,70.20439495528146
334.0,3.7002165743629103,1,Yaoyi,66.40625,-15.860101808,-0.0245502702033899,-0.090797250109593,0.12768797539193,0.1838620601932,4.351771830000001,-167.14677634999998,0.03578558225508318,0.5743579631750694,0.14749793588155166,68.78799069025492
335.0,3.6012591746312355,1,Yaoyi,51.97010869565217,-16.485774192222223,-0.0206640051175841,-0.1009889476738316,0.1263399549400594,0.1844103540292079,4.0290770555,-164.32658735,0.010646950092421443,0.529299643773833,0.15204590556246741,67.78090197163417
336.0,3.4287177272033564,1,Yaoyi,47.8515625,-15.360044541111112,-0.05531172476998,-0.1512103752494,0.11544825029961,0.223677296186,3.9422618605,-160.0824987,0.003475046210720891,0.610370004969751,0.1877544729400874,68.89597676737213
337.0,3.3733883440659698,1,Yaoyi,49.932065217391305,-15.78026396,-0.0600334879356386,-0.2569406607278911,0.1763342045322574,0.4355159159028713,4.289955095,-161.47734624999998,0.007097966728280965,0.5801075524908313,0.30917953599072956,69.57668625238144
338.0,3.8106322767223113,1,Yaoyi,68.359375,-16.05817737,0.106884324649205,-0.30262915742637,0.05729049271461,0.4515812955389999,4.079935375,-165.18422385000002,0.039186691312384475,0.5600933861164702,0.3180031021032486,70.04887927647133
339.0,3.530699096406853,1,Yaoyi,49.932065217391305,-18.79989836,-0.0354362238410693,-0.1572232433304158,0.0748538606281693,0.478626121080198,4.2223064675,-163.9826058,0.007097966728280965,0.3626460587423141,0.16695974590553453,65.82939000671766
340.0,3.4215332088283192,1,Yaoyi,50.95108695652174,-19.59948822333333,0.160691193967705,-0.306172393228093,0.01912547641393,0.415533877562,5.294764101,-168.549834,0.00887245841035121,0.30506292680202396,0.33866027208715915,66.54748646652858
341.0,3.675593057591049,1,Yaoyi,46.875,-18.160514037,0.0885688313155742,-0.1082011780020178,0.1234005191065475,0.2481005309472277,5.1555692355,-169.36528625,0.0017744916820702445,0.4086918548688136,0.17591213325440389,66.34708915810239
342.0,3.275800968213105,1,Yaoyi,48.91304347826087,-17.181821163333336,0.0236014260868868,-0.0798634201256584,0.0635142221590604,0.1838564678894059,4.3453469975,-168.0531461,0.005323475046210721,0.4791732397108267,0.09265265615630573,66.59776962670458
343.0,3.3452171570912705,1,Yaoyi,47.8515625,-19.593717725555557,-0.002607228873006,0.0368764970912499,0.06215541122028,0.1715814574360999,3.962054224,-166.53566475000002,0.003475046210720891,0.30547849401983923,0.059641993093892946,64.21237879720363
344.0,3.2307415850623817,1,Yaoyi,45.85597826086956,-19.85808742333333,0.0155745611137623,0.0118564119361366,0.0528100255104653,0.1301292837970297,3.849259912,-168.2665536,0.0,0.2864396893948162,0.04335069579276818,63.78408183907994
345.0,3.3575414268019554,1,Yaoyi,46.875,-17.783403574444446,0.02434379962856,-0.04742553367383,0.0814807805514599,0.182466642473,4.0455866275000005,-167.2020334,0.0017744916820702445,0.43584977984659395,0.0851533116562764,65.94691368505075
346.0,3.444129125786416,1,Yaoyi,54.00815217391305,-14.928095453,0.0135418542055077,0.0607350762025841,0.0604917848093346,0.1557238819712871,4.0339343515,-169.62964425,0.01419593345656193,0.6414771793760145,0.07437254669486301,68.57662519520231
347.0,3.542764839483302,1,Yaoyi,60.546875,-18.63810621888889,-0.03395515843756,0.064301867259579,0.06420934512053,0.1782527044242,3.5940833045,-166.9034604,0.0255822550831793,0.37429765493647355,0.08478450083945069,65.68149296761688
348.0,3.286840097635373,1,Yaoyi,46.875,-18.945424457777776,0.0201008854138881,0.0539385819128415,0.0646538792259504,0.1335113025459406,3.360666282,-168.7439619,0.0017744916820702445,0.3521658752465413,0.07415021052316545,64.85468202078522
349.0,3.384614958117652,1,Yaoyi,46.875,-16.66907745888889,-0.0109330502799417,0.030224836583165,0.05811414320653,0.1031254335468,3.3588144945,-166.7315093,0.0017744916820702445,0.5160989059036074,0.053625307066454374,66.65767916101633
350.0,3.45421748569134,1,Yaoyi,46.875,-17.937912779999998,-0.0131103137712019,0.0331568727717524,0.057809545415792,0.134174501480396,3.4122379315,-165.00575575,0.0017744916820702445,0.42472267034022226,0.05516330060707476,65.57346828258068
351.0,3.47633883249008,1,Yaoyi,46.875,-17.72261123,0.01146424085846,0.01750132495938,0.0718797576947126,0.1654801001633,3.4413784075,-164.2051765,0.0017744916820702445,0.44022779131426165,0.062232875158215364,65.81608633067826
352.0,3.4484456397433765,1,Yaoyi,46.875,-19.547552244444447,0.0028005698000099,-0.0114802567697198,0.0425235284716039,0.1989972555929703,3.282565742,-163.0231034,0.0017744916820702445,0.3088031397060988,0.030941055788985844,63.98865595642648
353.0,3.4571997895389583,1,Yaoyi,46.875,-20.002312977777777,-0.0003348377646615,-0.0224029517629772,0.1039043911112772,0.2020317451116831,3.262708075,-163.2371192,0.0017744916820702445,0.2760531656135937,0.09423972405039058,64.10204561340765
354.0,3.5572125663936203,1,Yaoyi,54.6875,-17.810059332,-0.10839625569502,0.39765288546571,-0.0317875517458444,0.496589501097,2.7032011355,-155.32282625,0.015378927911275419,0.43393014319951195,0.4069699200549457,68.77049963705922
355.0,3.568167335780289,1,Yaoyi,88.65489130434783,-18.10125637333333,-0.0771133676793445,0.3781894805572772,0.0599600008130722,0.4508320107673267,1.035212717,-83.07152428,0.07452865064695009,0.4129593450182836,0.38376641661738836,69.5162164860975
356.0,3.3432350481769104,1,Yaoyi,97.82608695652172,-17.69099031,-0.06189379802158,0.2675034028105,0.036442672151515,0.3148858675168,1.04799291175,-89.38469431,0.09049907578558222,0.44250499828239725,0.26805837702906443,69.26450851133292
357.0,3.456878170270741,1,Yaoyi,46.875,-19.10190013555556,0.0137483490267227,-0.0814785667259405,0.0668443098941485,0.4280721112138613,0.96757180245,-86.98007662,0.0017744916820702445,0.3408971486004054,0.09422922717219122,64.8800894342238
358.0,3.845990930487355,1,Yaoyi,46.875,-18.025636397777777,-0.06374587507389,0.24169571541292,-0.0019924972043599,0.5657224895390001,1.01042896185,-83.38197457999999,0.0017744916820702445,0.4184051807265856,0.2405529498280288,66.98077560098466
359.0,3.486018617286915,1,Yaoyi,58.59375,-15.973190668,0.4055155340237822,-0.0543746175808712,0.1400054652687585,0.4987877874168317,1.00367157455,-82.85873801,0.022181146025878007,0.5662137744541046,0.4263696522383004,70.64914543187322
360.0,3.310335857587249,1,Yaoyi,72.35054347826087,-17.828055623333334,-0.08733909056115,0.01265425011116,0.09543253530455,0.4193249210344,1.0799382385,-84.248773255,0.04613678373382626,0.4326341252460537,0.11836505989597379,67.06126565679696
361.0,3.295533626815328,1,Yaoyi,46.875,-18.782947590000003,-0.0300438848538712,-0.3002668264267327,-0.0117825447902732,0.4594182836584158,1.034070119,-88.339818995,0.0017744916820702445,0.3638667826035825,0.2935353595812673,66.75017410153454
362.0,3.2069918667141435,1,Yaoyi,46.875,-18.76816136888889,0.25922525105971,0.1567151449753,0.085202305268371,0.546596580504,0.9328884457,-86.00238328,0.0017744916820702445,0.3649316246684757,0.30644125588157095,66.86619937671568
363.0,3.046561894540058,1,Yaoyi,76.171875,-16.890519022,0.3110704268280396,-0.201867045920792,0.0690364599846396,0.6500428474049504,0.9822736563,-85.57765452,0.05279112754158965,0.5001516067563502,0.3701214423893718,70.01861337102297
364.0,2.9118857543571064,1,Yaoyi,99.8641304347826,-16.09158276,0.0066593946331782,-0.5631859799864357,0.0108671718756039,0.7773780311792079,0.96446200565,-87.574398455,0.09404805914972271,0.5576876690506386,0.5596663423434495,73.0505439503497
365.0,3.0223830058071437,1,Yaoyi,69.29347826086956,-15.240065693333332,0.36279598935046,-0.2274897541565,0.10269990515048,0.6428779557164,0.9488706689,-90.82878636,0.04081330868761552,0.6190103819160403,0.4344423074996272,71.7199292167418
366.0,2.9965258024095536,1,Yaoyi,46.875,-17.681237744444445,-0.1174291427525742,-0.2764099893245742,-0.5265914071631089,1.1644016495316831,0.9881879915,-82.035440465,0.0017744916820702445,0.4432073374376246,0.6033332639584995,70.1806439945609
367.0,3.085607935329558,1,Yaoyi,46.875,-18.40194599333333,-0.284139521761,-0.17168408200913,0.574843238211,1.18994919178,0.94593120595,-86.550844445,0.0017744916820702445,0.39130493085480933,0.66199949879679,70.02714499427344
368.0,3.193590574672198,1,Yaoyi,52.734375,-15.938346586,-0.3033589072876337,0.4043813811543812,0.0424037010661386,0.998949822380198,0.867128077,-85.328328745,0.011977818853974125,0.5687231001261185,0.5026034051488175,71.08506081978345
369.0,3.271964951577159,1,Yaoyi,99.8641304347826,-15.00032791,0.00603118358209,0.0302826374514999,0.0111606389949999,0.943378754096,1.04670292195,-83.059151745,0.09404805914972271,0.6362752986462328,0.019431191488676308,69.67171429865866
370.0,3.517427041967032,1,Yaoyi,85.9375,-16.970049364444446,-0.1433390600810594,0.0749775471486653,0.0935825502648316,0.6309691305616831,1.0409744825,-83.597568685,0.06979667282809611,0.4944241627100443,0.1763097684148404,68.73950155640118
371.0,3.412956995273444,1,Yaoyi,48.91304347826087,-19.046836431111117,-0.08313385495141,0.064285062728027,0.037224082354474,0.2501921760309999,1.027545182,-83.747755965,0.005323475046210721,0.3448626072730895,0.09952982413269928,65.04105938126288
372.0,3.1151747561962235,1,Yaoyi,65.21739130434783,-17.04177971,-0.1512309127510267,-0.0514078849036108,0.0613067477297029,0.7810295901841585,0.9680742836,-80.50060551,0.03371534195933457,0.4892584419553701,0.16022731477266994,67.8272266608325
373.0,3.161197315023276,1,Yaoyi,130.859375,-14.580931654,-0.0295501727512851,0.0355274250403366,0.0108748369308613,0.6757038693780197,0.94522868655,-79.119981765,0.14802218114602586,0.6664784703620853,0.03434028175903366,71.23290752133781
374.0,3.140172393955723,1,Yaoyi,127.37771739130434,-16.107394526666667,-0.00499578039195,-0.04788426418742,0.0508631747963,0.54581250266,0.8835275900499999,-82.26999998,0.1419593345656192,0.5565489714658792,0.05731671407826928,69.9763080615291
375.0,3.054839300913747,1,Yaoyi,58.59375,-19.092633297777777,0.0099490844275346,0.0391409290542148,0.0428560497835762,0.3302128891835643,0.7899934542,-80.49564127,0.022181146025878007,0.3415645076639668,0.045963573453405994,64.91010560011242
376.0,3.478722291780561,1,Yaoyi,46.875,-19.69724051,-0.10745744159252,-0.070241852826097,0.0060952837758729,0.4928372577238,0.84268332545,-82.18652320999999,0.0017744916820702445,0.2980232142209687,0.11687816481560719,64.54679372281788
377.0,3.2652408191460904,1,Yaoyi,52.734375,-16.15191378,0.0307175713898702,-0.0473519728144663,0.0404340693772277,0.3538796456953466,5.8535004155,161.5386451,0.011977818853974125,0.5533428802482022,0.05670167886653984,67.33328437099023
378.0,3.4183932247307047,1,Yaoyi,79.4836956521739,-15.382442873333336,-0.0401563045933184,0.0140407512000399,0.03854255931785,0.3554207050617999,3.1169631178,49.097263665,0.058558225508317914,0.6087569703644623,0.04445354119035164,68.83187648406272
379.0,3.547777343165708,1,Yaoyi,67.3828125,-17.113340734444446,0.0113973441475346,-0.0357559024597799,0.0511339529861782,0.2058716446631683,0.4098326249,86.72531362000001,0.037486136783733824,0.48410491500195374,0.050587911553014196,66.96368500812224
380.0,3.518639341326271,1,Yaoyi,46.875,-20.207778487,-0.002259362300731,-0.0108900700474149,0.03782698876166,0.1029227305971999,8.0060001685,15.29858308,0.0017744916820702445,0.2612563953326405,0.02614791052875192,63.379749861863104
381.0,3.6030305648885177,1,Yaoyi,46.875,-17.31952694111111,0.00888841271249,0.0010756618969693,0.0159305364180792,0.119407966270792,6.8586891521,-55.732124358,0.0017744916820702445,0.46925624309250885,0.004605570398544006,65.70340931393986
382.0,3.136751877926169,1,Yaoyi,46.875,-18.11084535111111,-0.0027160792247099,-0.01005719557549,0.06691888053406,0.4513595936214999,0.415520657,-107.741009155,0.0017744916820702445,0.4122687867735249,0.05496404281035891,65.42242761740657
383.0,3.0092799472917093,1,Yaoyi,46.875,-17.537239013333334,0.0028484619142178,-0.0060591345229702,0.0348020659964851,0.2192524756329703,1.32491980085,-168.5064774,0.0017744916820702445,0.4535775263470215,0.022086796201812482,65.65511451942017
384.0,2.970130954751996,1,Yaoyi,46.875,-17.453356824,0.004038626081573,-0.0066226801945346,0.042741629616499,0.1351448258414851,1.21241026455,-132.646093235,0.0017744916820702445,0.4596183722823184,0.030233203057073197,65.79277592548581
385.0,3.0155351783540625,1,Yaoyi,46.875,-17.58191093888889,0.00833578364309,-0.0067500666796799,0.03179151030722,0.3622434853592,0.3343874122,-93.49443327,0.0017744916820702445,0.4503604403117274,0.020164080234688044,65.60112775925964
386.0,2.816400157527072,1,Yaoyi,46.875,-17.973540815555555,0.003393789229694,-0.0020565077133188,0.0422097124601287,0.3978586665753465,0.37227096895,-103.58331779,0.0017744916820702445,0.4221568875980344,0.029170063505102716,65.33473299285863
387.0,2.6800838333231027,1,Yaoyi,52.98913043478261,-17.997526131999997,0.005755020992849,-0.01277604487134,0.04237076064134,0.21525670038,0.9222897114,-151.7885479,0.012421441774491686,0.42042956499830536,0.03144286446187492,65.5451265311645
388.0,2.3880319848111924,1,Yaoyi,59.10326086956522,-17.769724415555554,0.0001732788532564,-0.0065228729979722,0.0404473269273316,0.322155726930099,0.9202733248,-144.3888323,0.02306839186691313,0.4368348959007764,0.027718345430224136,65.92513335158937
389.0,2.249614169380709,1,Yaoyi,52.734375,-18.54863051888889,0.0006914661406454,-0.021757987916663,0.0362590637325999,0.08065753021,1.6166948665,-119.8008076,0.011977818853974125,0.3807413222149343,0.02906425723214146,65.04096630151582
390.0,2.5083801891568127,1,Yaoyi,46.875,-17.77602975,0.0007455157441563,-0.0157393107572673,0.0353520516294821,0.0586100411861188,1.254915768,-120.8829683,0.0017744916820702445,0.4363808119736384,0.025411116184133217,65.47534850679813
391.0,2.397491235269134,1,Yaoyi,46.875,-18.24428573111111,0.001749734881808,-0.013001890652453,0.042404955160506,0.0592247870575999,1.777485239,-106.2120434,0.0017744916820702445,0.4026589663392466,0.03119875387007843,65.11698746067299
392.0,2.9399259119986434,1,Yaoyi,52.98913043478261,-18.438492067777776,-0.0029468939283326,-0.0150513120218673,0.0366771175368693,0.0547549473695643,1.8889750625,-103.3763605,0.012421441774491686,0.3886730347751603,0.0264804614212739,65.12434894416195
393.0,3.0312638980250823,1,Yaoyi,46.875,-18.157678554,0.004142300775421,-0.013797834111661,0.0388039415535184,0.05554929489037,1.9508357625,-111.80661445,0.0017744916820702445,0.4088960545456613,0.02814764368521307,65.16742363767105
394.0,2.967564167448459,1,Yaoyi,46.875,-18.192575985,0.0015444528228168,-0.0125962905057415,0.0364677177447623,0.0554431553636732,1.328838834,-122.14141445,0.0017744916820702445,0.40638288690084773,0.025317562593692753,65.11462497720112
395.0,3.025415209252857,1,Yaoyi,46.875,-17.405047763333332,0.0021078296993707,-0.0110839096243384,0.0380381872396039,0.0460645943239603,1.7673483170000002,-115.8592813,0.0017744916820702445,0.46309738964089703,0.026400493401353614,65.803862456543
396.0,3.1732622975682045,1,Yaoyi,46.875,-17.617079490000002,0.0011277892104789,-0.01392990517176,0.036402209419565,0.0504924684227999,1.707770908,-116.8864413,0.0017744916820702445,0.44782774772563366,0.02570451938015225,65.61505896139022
397.0,3.062959547357086,1,Yaoyi,46.875,-17.277647622222222,0.0036822140426998,-0.0134826864259099,0.0376786066339405,0.0509604034912871,1.529887535,-131.95923829999998,0.0017744916820702445,0.47227221722591656,0.02692098780252294,65.91812434277259
398.0,2.978326338602754,1,Yaoyi,72.265625,-17.49964048,3.5309508081999925e-05,-0.015902754270807,0.03924502041935,0.05287895548801,1.705238231,-111.29739215,0.04598890942698706,0.4562852161327188,0.02911795166449282,66.6281443954483
399.0,2.981212596238838,1,Yaoyi,56.04619565217392,-18.162933095,0.003462364703995,-0.0126435559810386,0.0389002810320108,0.063159300930099,2.156518909,-103.1126578,0.01774491682070242,0.4085176443861987,0.027799237611875353,65.47950396994344
400.0,3.295614935735572,1,Yaoyi,64.453125,-17.086821875555554,0.003976623025683,-0.0143681145162493,0.035204816598384,0.060037784715,2.0462012585,-108.88421735,0.032384473197781885,0.4860146927771985,0.02492912734795505,66.67929879606567
401.0,3.468638323151503,1,Yaoyi,48.91304347826087,-17.80976616555556,0.0042060493040623,-0.0144325289784029,0.0367469483445148,0.0532354921431683,1.8611675715,-108.9144262,0.005323475046210721,0.43395125582590327,0.026427784135262852,65.52530684391715
402.0,3.808904633555215,1,Yaoyi,50.78125,-18.165770602222224,0.002011009490521,-0.0113481460377,0.038302525270625,0.05035654943942,0.6371994833000001,-112.1991785,0.008576709796672832,0.4083132989332965,0.026729080869961803,65.2851264300927
403.0,3.973949792744684,1,Yaoyi,63.17934782608695,-17.01365341,0.0019468836411742,-0.0124462703458331,0.0365146170453524,0.0472818965355841,0.49722117865,-109.21484685,0.030166358595194082,0.4912839809449971,0.02533168246513991,66.70138840296497
404.0,4.271066517243511,1,Yaoyi,92.73097826086956,-16.081979074444444,-0.0004364111433159,-0.0115949102325149,0.039888290155122,0.06106197184864,0.4269272731,-107.11238865,0.08162661737523104,0.5583792864883,0.028300191980912062,68.55948532121153
405.0,3.9777927477193447,1,Yaoyi,83.0078125,-16.791540973333333,0.0047093386212881,-0.0113107077779205,0.0352279806618361,0.0629037331360495,1.2050904196,-96.877913315,0.06469500924214418,0.5072795936117677,0.023978379786578182,67.57308234647672
406.0,3.5625355644206085,1,Yaoyi,46.875,-16.08848005,0.0007304163776826,-0.0097937432009916,0.0370920324852178,0.068783389122099,0.9655212513,-84.33182931,0.0017744916820702445,0.5579111133031178,0.025070503539273058,66.930987221593
407.0,3.522397710723632,1,Yaoyi,86.9140625,-17.316132981,0.0031227035094802,-0.0118113288399359,0.037398270910515,0.0596971476777,1.143254026,-85.71129843,0.07149722735674677,0.46950066196503365,0.02606142243917746,67.27244387022876
408.0,3.912203118225744,1,Yaoyi,62.16032608695652,-17.339889764444443,0.0021910539230069,-0.0108162185921891,0.0363182490175,0.0630687698274257,0.7417513955499999,-104.66722461,0.02839186691312385,0.4677897973602031,0.024650726507601965,66.37852071864573
409.0,3.9433177806344935,1,Yaoyi,93.75,-16.720869029,0.0026773851382639,-0.012765644135882,0.036676338584135,0.0625606844389,1.03514793605,-107.1153709,0.08340110905730129,0.5123690927182949,0.025637197317157908,68.02154887230283
410.0,4.080782176165566,1,Yaoyi,68.27445652173913,-16.90857916222222,0.0051565248822801,-0.0163099657155742,0.0371014285567742,0.0715612911026732,1.366733022,-97.22121929,0.039038817005545276,0.4988509906718228,0.027600817283206232,66.98779476643843
411.0,3.845832680697532,1,Yaoyi,58.59375,-16.99421610888889,0.00437336519642,-0.012591917511998,0.035779100881788,0.0610077852565,1.2267466395,-99.872099235,0.022181146025878007,0.4926837744213404,0.024878370229419154,66.554855175409
412.0,3.899620605744412,1,Yaoyi,95.78804347826087,-16.957359043,0.003700993519398,-0.0138414015276435,0.0399551361036821,0.0780332084471287,1.066913475,-104.1386391,0.08695009242144178,0.49533806680964587,0.029221529622141286,67.91683088712172
413.0,3.877304445400481,1,Yaoyi,57.06521739130435,-16.468399093333332,-0.00190763345876,-0.0145133710471025,0.036305285972034,0.0619040625494,0.99776022475,-106.2459693,0.019519408502772652,0.5305509260344955,0.025859815060235703,66.96387780295129
414.0,3.555549656590704,1,Yaoyi,64.453125,-16.50148620222222,0.0052275718088495,-0.0183964201504455,0.0369646326573663,0.0734269093327425,1.02503241515,-106.6163965,0.032384473197781885,0.5281681302487549,0.0283789530104301,67.21273865102414
415.0,3.2313398806293563,1,Yaoyi,59.10326086956522,-15.894025174444444,0.004038387347744,-0.0146319262680499,0.033116208707822,0.0773623015596,1.0386505545,-103.64791768,0.02306839186691313,0.571914943602903,0.023093887549500595,67.5090982609691
416.0,3.7038423985180793,1,Yaoyi,263.671875,-17.751147086,-0.0145044922443444,-0.0149966391075168,0.0339792701256861,0.1163676312973267,1.0511964445,-109.96969375,0.3792975970425138,0.4381727578071746,0.026601101296622968,73.05683384490935
417.0,4.148338648151124,1,Yaoyi,52.98913043478261,-18.08288418444444,-0.634801191039,0.01480060966861,0.038436058134203,0.643192751821,1.9512817435,-63.20488338,0.012421441774491686,0.41428243354820915,0.6338084838099445,70.2902859085479
418.0,3.8031718226881344,1,Yaoyi,67.3828125,-17.78683860111111,-0.9468111160297028,0.0327165639081148,0.0403732178121455,0.9516358792940594,5.781919131,-10.4356009255,0.037486136783733824,0.43560240353176627,0.951637325394594,73.59005018121263
419.0,3.447568819177341,1,Yaoyi,58.08423913043478,-17.87401601222222,-0.7424944791405941,0.0192585153886287,0.0527684350183505,0.7675675578633663,7.057277499,-3.2039071485,0.021293900184842885,0.42932424944750014,0.7442800446286139,71.53200935409578
420.0,3.9500575496775663,1,Yaoyi,63.17934782608695,-15.616637528000002,-0.622118642963,0.031604659606526,0.072899979882551,0.634341483515,6.461754131,-0.24692663025,0.030166358595194082,0.5918912466756172,0.6246801239389985,72.70346312352328
421.0,3.452826273367188,1,Yaoyi,71.2890625,-16.80591055,-0.4760994386465347,0.0012753226008861,0.0778445898602544,0.4877883450831683,6.7315396785,-3.0815960295,0.044288354898336414,0.5062447565445826,0.47727422139689263,70.77889794767687
422.0,3.069500448416278,1,Yaoyi,77.44565217391305,-16.771034426666667,-0.3734273880739999,-0.013728415966695,0.07797534552829,0.404832788943,6.69882693,-5.804331523,0.055009242144177455,0.5087563896999819,0.374731286813504,70.20311181379137
423.0,2.68769575374108,1,Yaoyi,74.21875,-14.1413879782,-0.2608133238940594,-0.0095205103386544,0.1090357107277326,0.3138909387257426,6.712981902499999,-6.334617893,0.04939001848428835,0.6981325753448548,0.2740358582567899,71.55767813987835
424.0,2.629310130250636,1,Yaoyi,62.16032608695652,-18.000883165555553,-0.2092868390019999,-0.020778669927497,0.08584366881229,0.260336559754,6.6680857305,-4.400976374,0.02839186691312385,0.4201878054225252,0.21732609719527612,67.34869978089499
425.0,2.9599824991860197,1,Yaoyi,57.6171875,-17.175911621111112,-0.0715572974151485,-0.0297464244009901,0.0762239500983712,0.186571082160099,6.081489700500001,-1.5400804324,0.02048059149722736,0.4795988203304589,0.0966898459806124,66.93831644175495
426.0,3.097499881697384,1,Yaoyi,64.19836956521739,-12.2578524552,0.022823618120591,-0.034291627693726,0.02984207784804,0.2076415878779,5.6633028715,-2.643630922,0.03194085027726432,0.8337769594331982,0.03779603064778407,70.94650876392593
427.0,2.659933617060585,1,Yaoyi,64.453125,-12.623134518222225,0.0960400749348217,-0.0152579995189207,0.1079774573283168,0.276508000900297,5.1581920565,-1.7850883296500002,0.032384473197781885,0.8074708665285893,0.1339754888280713,71.40914377292327
428.0,2.8706282858247065,1,Yaoyi,65.21739130434783,-11.439795520444443,0.0981787188725,-0.04614219719817,0.0986749567170899,0.2737232156793,4.524893905,-14.932797733,0.03371534195933457,0.8926900129483114,0.13533329419086496,72.46925334809335
429.0,3.3887471823700883,1,Yaoyi,83.55978260869566,-11.026339441,0.1317625114902574,-0.1213253408239505,0.0742068633206831,0.2788747707717822,4.8455604825,-11.0391976735,0.0656561922365989,0.9224653978874267,0.18343057677187696,73.85015323355611
430.0,3.708392972931055,1,Yaoyi,49.8046875,-12.3137639346,0.1399105840665346,-0.1346842660082376,0.1579104443182475,0.2992167614749505,4.6022978975,-10.5805776645,0.006876155268022184,0.8297504475389061,0.24089128095797763,72.02165872349114
431.0,2.574159524549595,1,Yaoyi,57.06521739130435,-13.85876842222222,0.1575470869168,-0.12302040041704,0.10607512851973,0.264852171907,4.1949008085,-11.8628322545,0.019519408502772652,0.718485658753055,0.2164393834926302,70.74373114303316
432.0,3.5607574220925846,1,Yaoyi,51.7578125,-14.163756767777777,0.2061015899125742,-0.1446906307596237,0.1788755549917257,0.330938309910891,4.275799537999999,-14.309389540000002,0.010277264325323478,0.6965216682777842,0.30055034388610696,70.96820805692873
433.0,3.918831622897756,1,Yaoyi,63.17934782608695,-16.33391086111111,0.211331578158,-0.1303471297326709,0.1000276983622,0.3657088836989999,3.909243755,-18.989349205,0.030166358595194082,0.5402362084218738,0.25859770796545173,69.15494333668998
434.0,4.083100013866483,1,Yaoyi,70.3125,-13.499647816,0.2330486337653465,-0.0879510621248712,0.1096281899864059,0.2873718203712871,3.775644024,-17.98354454,0.04258780036968577,0.7443480291992776,0.2631410218868121,71.88906053287954
435.0,4.123387499610051,1,Yaoyi,61.29807692307692,-16.3364307,0.2073983476808,0.007772623368056,0.067722603708931,0.2590753434959,3.67975862,-10.9610443795,0.026890373951372098,0.540054740119359,0.2083168877621823,68.68499946255722
436.0,3.991548126377585,1,Yaoyi,67.2554347826087,-15.08080859111111,0.1999314878221782,0.0289821035854881,0.0076926490150594,0.2805022822495049,3.451773599,-9.998981512,0.03726432532347506,0.6304794151669877,0.19187449689049496,69.84603546359732
437.0,4.354292241380075,1,Yaoyi,65.4296875,-13.860002388888889,0.15814322443421,0.09839747270701,-0.06474879753963,0.247783951623,3.1714939725,-3.870164921,0.034085027726432536,0.7183967936127686,0.18680514977241963,70.79690327606123
438.0,4.196698912261651,1,Yaoyi,58.59375,-16.580484650000002,0.0980255928929425,0.2070057076685049,-0.0136085202426999,0.2965695819653465,2.7856877155,18.6096511985,0.022181146025878007,0.5224789910411837,0.2196538328364927,68.4706014757037
439.0,3.9978581202972143,1,Yaoyi,68.359375,-14.627146383,0.05705588524714,0.0878181887546,0.034908701904037,0.2106614392127999,2.9819630045,20.640711273,0.039186691312384475,0.6631502780479686,0.098412625058944,69.52883816329486
440.0,3.893388181065073,1,Yaoyi,62.16032608695652,-15.85723563111111,0.1944179003319306,0.1202033498746841,0.0212074111826089,0.3473090901288119,2.9560932415,17.936681968,0.02839186691312385,0.5745643732979656,0.21976775419405167,69.22075185139047
441.0,3.974207926190863,1,Yaoyi,55.6640625,-14.612292187777776,0.4584207642168317,0.0399387957398919,0.1130950272995217,0.5376885335811881,1.5204058285,63.72671559,0.017079482439926064,0.6642200153252551,0.46854519159222474,72.06059136543938
442.0,3.936686825865168,1,Yaoyi,86.61684782608695,-14.948073713,0.364186061074,-0.14539679278516,-0.0179671020642099,0.43952143837,0.94837909215,-28.760036640000003,0.0709796672828096,0.6400384282934011,0.3857501722451998,72.1860558631386
443.0,3.821926878629293,1,Yaoyi,60.546875,-15.55575090888889,0.2895257648158416,-0.0989584050671287,0.1694007325273267,0.5858163638980198,0.7546218698,-122.07172505,0.0255822550831793,0.5962760474121566,0.34215050740421565,70.4041617298432
444.0,3.9122857497723817,1,Yaoyi,87.63586956521739,-14.543089858888887,0.27684978522,-0.11079693350863,-0.1407911997491201,0.652316187531,0.75815043525,-26.51286556500001,0.07275415896487984,0.6692036788479165,0.3218124019502715,72.06002654107476
445.0,4.0208770082763765,1,Yaoyi,54.6875,-15.469644617,0.2705286490906931,-0.1067393774344257,0.0135942206149108,0.4866802125584158,0.4398623013,-74.63297562,0.015378927911275419,0.6024770639508819,0.28248237295037826,69.79716230923911
446.0,3.959867025899115,1,Yaoyi,63.17934782608695,-16.357644253333333,0.1870619068770999,-0.09169905010278,-0.00173250076028,0.3652829225000999,0.3279496673,-130.257031085,0.030166358595194082,0.5385270283554513,0.19815608323414968,68.65090017804249
447.0,4.370705918878555,1,Yaoyi,77.44565217391305,-13.855396774444444,0.1457920991074158,-0.0821940281974455,0.0269961720472475,0.366983398880198,0.9927707438,-130.6187815,0.055009242144177455,0.7187284707842563,0.1586365198820058,70.99401865135067
448.0,4.520761736419077,1,Yaoyi,80.078125,-14.250823203,0.103529457126777,-0.01502955301004,0.01059283926646,0.3441539280683,0.9787470829,-34.26252238,0.05959334565619223,0.6902515062148592,0.09307572396149004,70.21949077939408
449.0,4.171770027877459,1,Yaoyi,64.19836956521739,-14.069911707444444,0.0959611825682475,-0.0269698566818247,0.0055451693237029,0.4179552048534653,1.079920208,140.236435,0.03194085027726432,0.7032799986905673,0.08766172569989818,69.77947079543128
450.0,4.2555220014822295,1,Yaoyi,66.40625,-13.257518137333332,0.0659116611833,-0.0478529623970499,0.0502700975590899,0.4009886722339,1.02284752785,7.425168599999992,0.03578558225508318,0.7617852002699549,0.08346778508468879,70.52487632901864
451.0,4.209010321229136,1,Yaoyi,59.10326086956522,-12.83390888,0.0728619071135306,-0.0309263056797453,0.0570029364878811,0.2597546161668317,0.4335460578,-133.8975456,0.02306839186691313,0.7922917747961316,0.08532943118486856,70.65150458437078
452.0,4.119481899216085,1,Yaoyi,48.828125,-16.559139047777776,0.04976995450526,-0.025099911398662,0.03498484434738,0.1890352712984,0.3486475758999999,-26.66906919,0.005175600739371538,0.5240162124161313,0.05301429094706196,66.8158208913575
453.0,4.021524553692733,1,Yaoyi,61.141304347826086,-14.84465363111111,0.0312799690558089,-0.0174789109660825,0.0161534716455049,0.1137961509946534,0.601999086905,-106.123790255,0.026617375231053605,0.6474863118819415,0.026022500133885816,68.51036324827545
454.0,4.150149030789919,1,Yaoyi,73.3695652173913,-14.796084317,0.0287902046406118,-0.0179330239685326,0.0360681502880891,0.1416685543042574,0.33335353585,-18.135585785,0.04791127541589647,0.6509840716097227,0.036416257097242194,69.06136442441255
455.0,4.064205997384233,1,Yaoyi,64.453125,-16.83183166111111,0.022846187823994,-0.0007018193659099,0.02836596579478,0.143617942264,0.115746593585,-78.334882615,0.032384473197781885,0.5043780260748796,0.023093660365158614,66.88497505977546
456.0,4.026667833674092,1,Yaoyi,46.875,-17.12641792,0.0051438647190475,-0.029926815347392,0.0151017196531584,0.1426747648495049,0.5942024968499999,32.3560752,0.0017744916820702445,0.483163150560226,0.020532183146378613,65.99770510553515
457.0,3.955692676797723,1,Yaoyi,61.5234375,-15.58090542222222,0.01096007081223,-0.009117183297215,0.03250345559186,0.126235351176,0.5648099784,-152.8402043,0.027282809611829946,0.5944645241217931,0.022140061643909654,67.85635097484939
458.0,4.029596679689324,1,Yaoyi,74.38858695652173,-14.68878714,0.0061294190693207,-0.0204018240724831,0.0316156750380138,0.0893733392791089,0.3489768038999999,-146.320761,0.04968576709796672,0.6587111674413966,0.02481869166213437,69.09679888455317
459.0,3.915821196696128,1,Yaoyi,50.78125,-16.736641761111112,-0.0005232206424789,-0.0100949444668968,0.01873955433402,0.0966371800103999,0.22297803875,15.85799205,0.008576709796672832,0.511233206239661,0.007678938590019092,66.36776417952954
460.0,3.8683307151622106,1,Yaoyi,61.141304347826086,-17.458477858888887,0.0033243720431426,-0.0381200743087198,0.040134043533693,0.1801089131137623,0.31549894105,-105.2647416,0.026617375231053605,0.459249576676971,0.04246595821802607,66.38307009048893
461.0,3.965830800207272,1,Yaoyi,48.828125,-15.778346662,0.003060990807816,0.00431391052209,0.01601590958909,0.18799372907618,0.9004858087500001,-14.558862230000004,0.005175600739371538,0.5802456283079039,0.0031724308220084053,67.09183900105835
462.0,3.9459295821204,1,Yaoyi,50.95108695652174,-15.345174558888887,-1.840643425742928e-06,-0.0208156332627049,0.044651723924093,0.1502707136329703,0.2996542363,-98.48437049,0.00887245841035121,0.6114408791610303,0.03616559126219379,67.80406444823694
463.0,3.945895019313004,1,Yaoyi,47.89402173913044,-15.173916356666666,0.0085798358737,-0.0095382793038479,0.020389398856666,0.13700330903018,0.36515451375,50.273276,0.003548983364140489,0.6237741816535206,0.01052804560234777,67.64049421194383
464.0,4.026918956052956,1,Yaoyi,68.359375,-17.203178017,-9.240310393564347e-05,-0.0116894278850217,0.0250815562799802,0.1197700584308911,0.38495052685,-137.02627245,0.039186691312384475,0.4776352080537092,0.01417589597618891,66.62876349070171
465.0,3.978794379908584,1,Yaoyi,60.12228260869565,-16.631536071111114,0.0035957226504594,-0.0119133907175782,0.0471640582855049,0.1676821406424752,0.59599088905,125.66060735,0.02484288354898336,0.5188024803043849,0.03566951294151762,67.00784353816442
466.0,3.8905576590003466,1,Yaoyi,66.40625,-14.684968523333332,0.0007720457987629,-0.0127195300701159,0.01871718873588,0.136677442977,0.1983723633,-71.549162045,0.03578558225508318,0.658986168310504,0.009054887330505444,68.69598476347176
467.0,3.630859451429679,1,Yaoyi,60.12228260869565,-14.81539569,0.0075435611184891,-0.0090399864465752,0.0142707666227623,0.176422297470396,0.50167442355,-110.16796738,0.02484288354898336,0.6495933469514943,0.0048364771750323,68.33066965179786
468.0,3.741109062955312,1,Yaoyi,76.171875,-16.47865201,-0.005587634634752,-0.002211212307725,0.03633610079752,0.1080661140559,0.30215193355,-140.3046003,0.05279112754158965,0.5298125536760362,0.02350171192340076,67.60158689033143
469.0,3.870595330011111,1,Yaoyi,52.98913043478261,-18.14351640555556,0.0050301314904019,0.0074564461085146,0.0212725179022673,0.1382260643270297,0.5461478697,-158.7881752,0.012421441774491686,0.40991595349614895,0.009515876113042623,65.24354728634796
470.0,3.857254286300276,1,Yaoyi,59.10326086956522,-16.751515375555556,5.593784535499975e-05,-0.0159990666815804,0.04179132495923,0.1837822177218999,0.3021875013,-144.00914955,0.02306839186691313,0.5101620704708646,0.03156659319195625,66.83584542852428
471.0,3.814179868817887,1,Yaoyi,83.984375,-14.383515649,-0.0101723315986297,-0.0939730342648742,0.0084601915938613,0.1223190104149505,0.8765708155,-89.89224604,0.06639556377079482,0.6806955488723728,0.08263781232879769,70.15736036051476
472.0,3.421914364731143,1,Yaoyi,94.76902173913044,-15.488477780000002,-0.011963527843725,-0.13248831871805,0.0081330793642456,0.1784576832518,1.561023889,-100.035367085,0.08517560073937154,0.601120777985273,0.12171811902734128,69.89070630282944
473.0,3.9180124942163848,1,Yaoyi,82.03125,-17.321127234444443,-0.0015910307258514,-0.1573968416856435,0.0006003932613188,0.1845945326181188,1.45342489,-102.462272365,0.06299445471349353,0.469140996631314,0.14629130897454126,68.05991152564197
474.0,3.8707399812678953,1,Yaoyi,65.21739130434783,-16.60490948888889,-0.013719570134695,-0.1043844806708,0.0037279917413669,0.1520671814314,0.88540184955,-99.675193845,0.03371534195933457,0.5207200158654657,0.09327794641349478,67.66917060088024
475.0,3.84676285579338,1,Yaoyi,108.3984375,-14.464210662,0.2024602964281782,-0.0551957879134069,0.0245907143654138,0.2602072350461584,0.8786164268000001,-111.58097905,0.10890942698706099,0.6748842301031086,0.20115948643516035,71.8860751924598
476.0,3.886078470854821,1,Yaoyi,85.59782608695652,-13.741586698888888,0.515582982243,-0.030941874789829,0.024098907547331,0.538514949491,3.407028887,-159.85099585,0.06920517560073935,0.7269245984459172,0.5125595851345465,74.20767537444216
477.0,4.0026210221559575,1,Yaoyi,124.0234375,-14.618881276666665,0.3491480491178217,0.030918035633894,0.046639742508698,0.3650177451821782,3.816474807,-169.7706538,0.13611829944547135,0.663745496584768,0.34609022161986386,73.45603372088556
478.0,4.159082820718662,1,Yaoyi,54.00815217391305,-16.446586302,0.2697237793138614,0.0638323034577722,0.0449676125088118,0.2950521813386138,3.5340703005,-174.28681055,0.01419593345656193,0.5321217924235428,0.2719482742008274,68.84496637182038
479.0,4.213053532646579,1,Yaoyi,97.82608695652172,-14.675786045555558,0.20881650387,0.044178564771215,0.0533214261164399,0.234764761065,3.7501843705,-174.80443765,0.09049907578558222,0.6596474521181952,0.21003248525261486,71.40601082315091
480.0,4.087699201247828,1,Yaoyi,70.3125,-14.166306752222225,0.0751668317615742,0.045293667151994,0.0414260118838168,0.1367561644882673,3.450776262,-1.13177859999999,0.04258780036968577,0.6963380290179039,0.08482207753516473,69.88638897588989
481.0,4.0243507066658415,1,Yaoyi,70.3125,-15.09502936,0.03815535194933,0.017916377465949,0.06806296429219,0.231672835154,3.290560602,-172.3625204,0.04258780036968577,0.6294552946162248,0.0675242378457735,68.9454134455546
482.0,3.991376262541455,1,Yaoyi,73.2421875,-14.388156123000002,0.034956357414199,0.047618041029812,0.028290409810099,0.2922853423160396,3.317196118,-173.3527746,0.04768946395563771,0.6803613612608721,0.05269459769059537,69.53968239576798
483.0,3.995381395952128,1,Yaoyi,85.59782608695652,-12.013693575666666,0.083893268453876,-0.0085060235458299,0.0336487438739,0.1578861814008,3.0276357965000003,-176.7646756,0.06920517560073935,0.8513602650993686,0.07845166098592794,72.22803998109464
484.0,4.038257055640141,1,Yaoyi,65.4296875,-12.552005582222222,0.0815729372052396,0.0111846163367171,0.0554773284571287,0.1688387883340594,3.634218843,-172.5923967,0.034085027726432536,0.8125932762717368,0.08710069225593689,71.12962540783698
485.0,3.9650216696818954,1,Yaoyi,64.19836956521739,-12.491342379,0.056737304085914,0.036907657358588,0.04284098788038,0.1194319535277,3.370124326,10.239648549999998,0.03194085027726432,0.8169619875264086,0.06757035121008047,70.98292366554284
486.0,3.9784205649895568,1,Yaoyi,61.141304347826086,-15.867472157777778,-0.0109197003783386,0.0343748993960284,0.0445042814599294,0.1089695179539604,3.3517116435,-171.8441065,0.026617375231053605,0.5738271812790475,0.04433193214933892,67.77292913716435
487.0,4.13999766714745,1,Yaoyi,55.6640625,-16.608139032222223,-0.023957693087523,0.001474878287852,0.033996314065744,0.1260236979275,3.168913105,-162.5595231,0.017079482439926064,0.5204874376045371,0.028375965851083956,66.81444662686164
488.0,4.149675404911179,1,Yaoyi,50.95108695652174,-14.015135480999998,-0.0005980760850036,-0.0104387243757158,0.0613833694116633,0.1269018822733663,3.0646025785,-164.5237487,0.00887245841035121,0.7072247543949388,0.04940648897894762,69.05939813277787
489.0,4.158072831598482,1,Yaoyi,72.265625,-14.387008817777778,0.0112315013947099,-0.022816630697471,0.014835695886812,0.1143228452427,3.2740318285,-162.99157100000002,0.04598890942698706,0.6804439854048446,0.015978659431335387,69.21293528884856
490.0,4.117556951521639,1,Yaoyi,65.21739130434783,-12.818834254444443,0.0537672932306336,-0.0514833082000289,0.035251485310299,0.1175061210308613,3.25213229,-163.9747764,0.03371534195933457,0.793377386548008,0.06987366045006368,70.75382476136329
491.0,3.920404586739359,1,Yaoyi,61.5234375,-15.945581527000002,0.068394037150594,-0.0476818943596336,0.0232169139442673,0.1063408486010891,3.7798148525,-169.9605301,0.027282809611829946,0.568202069806341,0.07413133988515441,67.95713174899393
492.0,3.626169597832219,1,Yaoyi,54.00815217391305,-14.345301132222223,0.1800713517054,-0.053784176225402,0.03605382061358,0.2088432628465,3.8645163605,-170.33479215,0.01419593345656193,0.6834475992203796,0.1808676074597896,69.93223071945411
493.0,3.6576857962831615,1,Yaoyi,50.78125,-15.577451021111113,0.3536066700990098,-0.0798566659773762,0.0402282647553574,0.383835827149505,4.7456928375,-177.07934790000002,0.008576709796672832,0.5947132957034216,0.35742791235379445,70.16751704320487
