BrightnessEV_mean,trial,experimenter,timestamp,Peak-Frequency_mean,Sound pressure level (dB)_mean,Linear Acceleration x (m/s^2)_mean,Linear Acceleration y (m/s^2)_mean,Linear Acceleration z (m/s^2)_mean,Absolute acceleration (m/s^2)_mean,Inclination (deg)_mean,Rotation (deg)_mean,Peak-Frequency_norm,Sound-pressure-level_norm,Linear-Acceleration-norm,heart_rate
1.5187596048728549,2,Yaoyi,0.0,66.40625,-15.961949609625,0.595122528497,-0.688426492017,0.03427059525833,0.985484994162,5.51350173,11.65202435,0.0056471651231082,0.5574719337899672,0.7653127967841699,72.92510888221513
1.6546485301915654,2,Yaoyi,1.0,71.33152173913044,-13.087071392,0.5654734189980001,-0.796339048845,0.1843465068858,1.110665396834,5.58778342,10.802084817,0.008495300576501903,0.671993650906407,0.836576962411051,74.92644552169533
1.6013644452869835,2,Yaoyi,2.0,73.2421875,-14.356600424444444,0.6282479306376237,-0.8688338935079207,0.10521551632599,1.1064931800059403,5.5358204075,0.7784250414999999,0.009600180709283939,0.6214215453356817,0.9079372906139909,74.91256048312579
1.6175902365128818,2,Yaoyi,3.0,70.3125,-14.614102483333332,0.6569252021623762,-0.7122928576841584,0.1171390716416722,1.0072097923514851,3.9807335865,-8.981015428000001,0.00790603117235148,0.6111638663271649,0.8212588571351959,74.06215787645458
1.9032217459643104,2,Yaoyi,4.0,88.65489130434783,-14.721362878888888,0.6201425333080001,-0.550346649817,0.12773118631854,0.91996976349,4.45788548,-2.536945136,0.018512880447059055,0.6068911132754692,0.7039326396635803,73.28441208555546
2.0357072652391945,2,Yaoyi,5.0,95.703125,-15.081759928,0.5872282919217822,-0.3887173156663366,0.1093673983757128,0.7671986861267327,4.604456779,-4.0716912265,0.0225886604924328,0.5925345785691054,0.5959125417875213,72.3294884869781
2.0884849682054454,2,Yaoyi,6.0,72.35054347826087,-14.598042128888888,0.316688249694,-0.23155206337557,0.09542130280212,0.473243246492,4.8492044955,-6.6114425720000005,0.009084569980652324,0.6118036358162516,0.33157952139607577,70.17597120057667
2.0271326051054226,2,Yaoyi,7.0,97.65625,-14.92197378777778,0.1826154011027128,-0.0805404019630435,0.0709639164716831,0.338416310950495,4.724672144,-3.404100826,0.02371809351705444,0.5988997118945699,0.1673599162148095,69.0000377427944
1.8477275021110515,2,Yaoyi,8.0,87.63586956521739,-16.5565856,0.273299794418,0.041382903888883,0.06403999221349,0.347695758823,4.222956893999999,1.09550516435,0.017923611042908634,0.5337844139988724,0.22888958068972307,68.59500183436242
2.471615195262276,2,Yaoyi,9.0,116.2109375,-15.5995217498,0.2276741005485148,0.1723217257571287,0.043227573763495,0.3603328345544554,29.8608960605,-98.902849725,0.03444770725096002,0.571909366507477,0.23321247303978482,69.41756632742721
2.211801091638712,2,Yaoyi,10.0,94.76902173913044,-17.69947270666667,0.18366419538294,0.1859265455162999,0.1051146297988299,0.519733987718,12.09058442,110.081143765,0.02204849687196158,0.48825713109579555,0.22713999308757576,68.11717545528938
1.7768306626138268,2,Yaoyi,11.0,82.03125,-17.399334356666667,0.0889680173998812,0.2661133259113663,0.0231282562576767,0.6524924838673267,5.786456391,-119.96006605,0.01468262932008132,0.5002132407507259,0.22701272143285045,68.11231324687314
1.9546835098133253,2,Yaoyi,12.0,78.46467391304348,-20.48967115555556,0.111334556843516,0.17176159891158,0.05277192817185,0.5960551528139,6.390971543,-123.0807429,0.012620186405554849,0.37710866035244694,0.16697837109908287,66.11353462113313
2.436074500963926,2,Yaoyi,13.0,95.78804347826087,-21.593621594444446,0.1970556991750396,0.1822196177862376,0.0829887733571287,0.3449819151435643,6.015807945,-117.0182244,0.022637766276112005,0.3331324323863642,0.2264887235029583,66.26225430218227
2.2859940649151,2,Yaoyi,14.0,117.1875,-22.191912847,0.2135192253082178,0.1482889130150158,0.0658510937377762,0.3060415172415841,5.558179582499999,-110.21351425,0.035012423763270836,0.3092993040269266,0.21557188226105162,66.13641518167695
2.6673181607183447,2,Yaoyi,15.0,94.76902173913044,-22.065840243333334,0.287207879426,0.1021618282854879,0.10305804126231,0.344208726003,4.3829353055,-110.04501152,0.02204849687196158,0.31432144756147073,0.2614472425422362,66.30440524851477
2.931851842701774,2,Yaoyi,16.0,101.5625,-21.31013844,0.1194567639172277,0.0884883901297029,0.0776725948835247,0.1819790375751485,5.4462200395,46.05443546,0.025976959566297718,0.3444250768613649,0.1296265337190013,65.68965238341434
2.8983117599522408,2,Yaoyi,17.0,123.3016304347826,-22.596000340000003,0.2017770537355,0.067160676056156,0.09161652542313,0.2395974197082,5.53865945,-81.74843911,0.03854804018817336,0.29320234615235347,0.18424049486639837,65.76331291652289
2.6207565624799805,2,Yaoyi,18.0,94.7265625,-21.645844388,0.2326483446366336,0.05338705849299,0.1001144343417821,0.2645565343316832,12.335132465,25.009045009999998,0.022023943980121977,0.3310521202695121,0.20758681240959653,66.07379882211336
2.3018089690419603,2,Yaoyi,19.0,95.78804347826087,-21.18402385888889,0.08789826340371,0.0364679182360015,0.08296976232062,0.1780865044980999,5.416049410499999,-59.76318412,0.022637766276112005,0.3494488925811823,0.0941373269832713,65.3992406523626
2.270437773198955,2,Yaoyi,20.0,126.3586956521739,-23.55724459888889,-0.0493848957830396,0.0367226295713069,0.0880271975103564,0.1198277629216831,5.155728532,-59.33839707,0.040315848400624625,0.25491086569193344,0.07801068479465119,64.48933283467291
2.1138837336942755,2,Yaoyi,21.0,147.4609375,-24.316868671111116,-0.4410878463059,0.022099879000501,0.050661942870876,0.4606478198015,5.0543320985,-57.700281065,0.052518635644906254,0.2246509915238586,0.36648090325731947,66.67803183724298
1.9828720338719643,2,Yaoyi,22.0,168.13858695652175,-24.642542176,-0.7360727264326733,0.0127379910468217,0.0266898995146801,0.8509981540326732,5.007021223,-56.80380859,0.06447589397079188,0.21167768059522532,0.6164449829366745,68.76120991005193
2.7114879963394025,2,Yaoyi,23.0,592.7734375,-24.23015402,-0.622732421528,0.0185402154447299,0.030705530331828,0.647694917478,5.0662711185,-57.03498771,0.31002936525864017,0.22810529810405242,0.5198389144971652,73.09656219839876
3.114991070354357,2,Yaoyi,24.0,972.1467391304348,-23.448862574444448,-0.4877805903346534,0.0142881222907603,0.0384113785427326,0.4976388775782178,5.0505704265,-55.76786549,0.5294094538454739,0.25922829919845164,0.4049530413087248,76.9385529977607
2.997001159509951,2,Yaoyi,25.0,160.15625,-25.017120134444447,-0.3877539290009901,0.0108233604446366,0.0420849409851881,0.3969392782257425,5.047926391,-55.5260597,0.05985995030494692,0.1967562447124675,0.3199703271255858,66.11803655965323
3.0166285197613045,2,Yaoyi,26.0,162.02445652173913,-25.617526824,-0.30464204743,0.007767349910091,0.039528815030425,0.309470794017,5.033875969,-55.9567286,0.06094027754588935,0.1728388472260088,0.24904684304753133,65.28524646201015
3.181833788834447,2,Yaoyi,27.0,162.109375,-26.135977285555555,-0.2421064206633663,0.0056813063357594,0.0485081479066336,0.2659048581386138,5.0668285345,-55.819739245,0.060989383329568554,0.15218620297375834,0.19744131832543446,64.62555264887995
3.1767671906569337,2,Yaoyi,28.0,164.0625,-25.00152526222222,-0.191026541652,0.006020378750869,0.04419748928626,0.207268340476,5.0126841335000005,-55.255259475,0.0621188163541902,0.19737747156449614,0.15395804443102354,64.84257034130594
3.18235713625399,2,Yaoyi,29.0,157.9483695652174,-26.205229378,-0.1580674114785148,0.0124135664657722,0.0461921236827722,0.3338290990485149,5.0276081315,-55.89431887,0.05858319992928768,0.1494275231479409,0.12741580719965218,63.984120733958264
3.139632137905728,2,Yaoyi,30.0,166.9921875,-25.44305406555556,-0.11588561417485,0.036454767117453,0.03661597777421,0.2192905457594,4.991177222499999,-55.77299324,0.06381296589112266,0.1797890268073914,0.09467532795323362,64.19113026313701
2.9947379126928144,2,Yaoyi,31.0,164.0625,-25.873404704444443,-0.1225573286593366,-0.0296862552518475,0.0539078605091881,0.1998326810696039,5.0225790265,-55.25603401,0.0621188163541902,0.16264586789875884,0.10345311608269478,64.02175167053046
2.564734750950621,2,Yaoyi,32.0,154.296875,-25.79257538,-0.08369190569616,0.005661290274612,0.041263590358715,0.1248349026845,4.965471018500001,-55.88996625,0.056471651231082,0.16586573056006726,0.06609665103630348,63.64859499963288
2.5462259323468266,2,Yaoyi,33.0,224.18478260869568,-24.75613732,-0.075794683963098,-0.0118587974084752,0.039381252147693,0.2041752376015841,4.993916055,-55.586802735000006,0.09688571119906504,0.20715258076066034,0.05989418603301998,64.90269868137338
2.316451824754953,2,Yaoyi,34.0,291.9921875,-24.61127156333333,-0.0541551137888415,0.0230838188677128,0.0643953975622376,0.2754203999113861,5.0398402285,-56.482707095,0.13609667946690762,0.21292335571144944,0.06076254790982419,65.76311424115414
2.339903393221064,2,Yaoyi,35.0,155.91032608695653,-23.900245997777777,-0.030322414985005,0.0109122697323548,0.0336579941689,0.0728494436688,5.019884167000001,-55.60660713,0.057404661120986834,0.24124729242010728,0.025979030149511376,64.25089297265711
3.004129644190336,2,Yaoyi,36.0,216.0326086956522,-24.382433561111117,-0.0388677703678514,0.0035473295238782,0.0433656027872279,0.0657834148128712,5.012011273000001,-55.992246285,0.09217155596586167,0.22203919261727617,0.03602835167861329,64.79612824415345
3.094269120832179,2,Yaoyi,37.0,152.34375,-25.867184327,-0.0316794327053999,0.0035451726971588,0.040016852885525,0.0547993792897,5.039091265,-55.822972565,0.055342218206460354,0.1628936586753151,0.029883758824898608,63.30063833883218
3.1155360124107974,2,Yaoyi,38.0,158.9673913043478,-25.87957200111111,-0.032218965855297,0.0020943416631435,0.0360411488885445,0.0533102765775247,5.014561089,-55.508778695,0.05917246933343809,0.16240019161240235,0.02751066609696283,63.35233701479329
3.1150471733051264,2,Yaoyi,39.0,164.0625,-25.804961936666665,-0.027572661805042,0.0006757502878539,0.03596887811448,0.0484964161279,5.856323438,-46.535368235,0.0621188163541902,0.16537230801092062,0.024890713360410814,63.42596973009814
3.1134698691222584,2,Yaoyi,40.0,150.81521739130434,-26.381597427,-0.0214771087583069,0.0005123040164602,0.0388445066990297,0.0507249658317821,8.709615646,-27.23712688,0.054458314100234724,0.1424018440453866,0.02408914288487948,62.99070155362837
3.0084927068869134,2,Yaoyi,41.0,163.0859375,-26.286175944444444,-0.019976160227497,-0.000292023472042,0.033261798531124,0.068176160578,9.169042824,-25.38978612,0.06155409984187938,0.14620299011309248,0.019306883060662996,63.139972942680004
2.6832382604598743,2,Yaoyi,42.0,164.0625,-26.11936422444445,-0.0769515951994821,-0.0074165450128313,0.0423252152339109,0.1093207839795742,9.098917778,-25.86921785,0.0621188163541902,0.15284798971426797,0.0615215404807048,63.568724527500656
2.813347945556777,2,Yaoyi,43.0,160.15625,-25.582950315555557,-0.751408523021,-0.01329384030045,-0.034182699914673,0.7934521341120001,9.1264821765,-25.046496845,0.05985995030494692,0.17421621378528512,0.6298245620460396,68.32639006789067
1.9537559602732224,2,Yaoyi,44.0,155.91032608695653,-24.578005339,-0.7592622919752475,-0.0606186636017455,0.0733522203949703,0.8162462583207921,8.9803813495,-25.8611988,0.057404661120986834,0.2142485266732235,0.6408618399596527,68.84597026217564
2.083754938563472,2,Yaoyi,45.0,126.3586956521739,-23.020283961111108,-0.5959380369653465,-0.0304533184010039,0.0375625133513564,0.6001408829326732,9.0877392,-25.6256177,0.040315848400624625,0.27630086888763455,0.49770475829332345,68.1035654610107
2.312351188650561,2,Yaoyi,46.0,107.421875,-22.593079607777774,-0.4622344820669999,-0.0222698930106807,0.04220131418099,0.466358799976,9.1479040625,-25.14737314,0.02936525864016264,0.2933186944787891,0.3837254650278661,67.17693322677165
2.3076584686673924,2,Yaoyi,47.0,91.71195652173913,-21.586656565555558,-0.3580073142683168,-0.0238205803441584,0.0508161191823683,0.3651964959108911,8.887231705000001,-26.66179666,0.020280688659510316,0.33340988659754817,0.2961814528148749,66.77598403487978
2.3533891679396315,2,Yaoyi,48.0,107.421875,-22.632387953,-0.283251703571,-0.01670209459684,0.06940897579325,0.301984768124,8.863465913999999,-26.2497733,0.02936525864016264,0.2917528336488393,0.23605417882465285,65.97677260718655
2.3490123565843004,2,Yaoyi,49.0,123.3016304347826,-22.17630908555556,-0.2223823217207921,-0.0153829870066782,0.0691245329470495,0.2520379596415841,8.893826158,-25.844508305,0.03854804018817336,0.30992088498403897,0.18580593154239217,65.97645887591108
1.9693451274662144,2,Yaoyi,50.0,98.6328125,-22.424843352222226,-0.1605896029821,-0.00690222877403,0.07463646260032,0.2548823385103,8.8851465875,-26.414200225,0.02428281002936526,0.3000204409212448,0.1377481106376115,65.18788637674314
2.08407208727264,2,Yaoyi,51.0,95.78804347826087,-21.443968716666667,-0.1282271611632673,-0.0101529250681663,0.0742584346075019,0.2025217279678217,9.0826658695,-27.047911075,0.022637766276112005,0.3390939038773849,0.11319384434769779,65.42743292683244
2.783064095995381,2,Yaoyi,52.0,86.61684782608695,-21.832339794,-0.0927017313722999,-0.03337913606992,0.089120565407918,0.1720140338605,9.077120141,-27.759415195000003,0.017334341638758213,0.32362301457783116,0.09978518152653608,65.02844445992143
3.056117744735547,2,Yaoyi,53.0,74.21875,-16.382596494444446,-0.0672278850676633,-0.0602456445344752,0.0825004034826389,0.1569241639329703,9.2133811295,-30.76621237,0.010164897221594759,0.540715327108728,0.09074783573135516,67.41786455558747
3.0375876775431805,2,Yaoyi,54.0,70.3125,-16.066856946666668,-0.0610462353411999,-0.15071972442796,0.090494392118131,0.2221479488602,8.701882161499999,-26.95922669,0.00790603117235148,0.5532929155962678,0.14534352774798123,67.96038383258609
2.9282909158928216,2,Yaoyi,55.0,85.9375,-16.515005203,-0.0831880620924267,-0.2784755363841089,0.1035107634951683,0.3349429993869307,9.499136409,-35.90729453,0.0169414953693246,0.5354407827569052,0.25009412749996013,68.76487232046904
2.7368827357052767,2,Yaoyi,56.0,73.3695652173913,-13.886686858888888,-0.0692050870276713,-0.3668031982782178,0.1076598261500297,0.4140343249,9.320376131,-35.90913595,0.009673839384802738,0.6401407064096379,0.31852329670887186,70.42335163828268
2.624600236697688,2,Yaoyi,57.0,74.21875,-14.419843688888887,-0.019709492660034,-0.4906409646729699,0.11218203656714,0.611788657522,9.3252184135,-41.52584442,0.010164897221594759,0.6189022291448866,0.4170940454878696,70.96687705807349
2.9323570067819293,2,Yaoyi,58.0,70.3125,-10.922228194444443,0.0266486346790396,-0.5758517631755347,0.1243039891855742,0.7146502284990099,9.1463526835,-41.671558195,0.00790603117235148,0.7582308900186501,0.49070621343934473,73.18254101118559
2.944414177612046,2,Yaoyi,59.0,75.1953125,-10.7031760163,0.05988977960675,-0.6376083999798,0.13207963195618,0.7516154638137,8.395006287500001,-43.4691097,0.01072961373390558,0.7669569054113723,0.5456188453982235,73.78302590280038
2.896523594952032,2,Yaoyi,60.0,68.27445652173913,-8.165582053888889,0.0978533015771089,-0.7064481452021684,0.1826725284171683,0.8074941842792078,6.54729481,-78.180673005,0.006727492364050635,0.8680427935502133,0.6160591412989465,75.47953650027515
2.743734523010361,2,Yaoyi,61.0,67.2554347826087,-7.535114720333333,0.12214201414306,-0.7395183411799999,0.14949707235839,0.8099212585169999,6.168633815,-79.380691595,0.006138222959900221,0.8931576666540393,0.6400903879055208,75.96137956229065
2.7531156621074246,2,Yaoyi,62.0,69.3359375,-7.429108819555555,0.1940827676736534,-0.7212193596633664,0.1657739593936336,0.8129700901524752,5.004409777999999,-70.50659133,0.00734131466004066,0.897380446494632,0.6407344023910532,76.04126687026482
2.773061311740992,2,Yaoyi,63.0,73.3695652173913,-7.1801432895,0.728140832619,-0.6724737374759999,0.157779694266,1.040089749452,4.8922244935000005,-55.58563151,0.009673839384802738,0.9072980700760306,0.844888985409714,77.84016551188614
2.8032264700922367,2,Yaoyi,64.0,82.03125,-8.243673837444444,0.9067684598168316,-0.5990930400399009,0.1530105875979802,1.1351108947336634,5.238353161,-55.50745611000001,0.01468262932008132,0.8649319817284674,0.9252152530122856,78.07455839124152
2.6375018066720366,2,Yaoyi,65.0,70.3125,-8.007875516222223,0.6806234225590001,-0.443920322892,0.1044888958629622,0.88325723927,5.0031605355,-53.16459399,0.00790603117235148,0.8743250852255091,0.6871403241698825,76.1471442395122
2.558508468050633,2,Yaoyi,66.0,78.125,-15.404379348888888,0.3971907051108911,-0.3350858417494851,0.1176032016219802,0.6306236221069307,5.3595675345,-61.337985585,0.012423763270838039,0.5796829280787311,0.4420020227317798,70.74068658421578
2.683737443674892,2,Yaoyi,67.0,94.76902173913044,-19.091224266,0.2246794546623762,-0.2962464499219208,0.081756747650297,0.4579656403643564,6.522306716499999,87.956477715,0.02204849687196158,0.4328162510622726,0.31185139582508486,68.12957611678718
2.72267223551946,2,Yaoyi,68.0,97.82608695652172,-19.38142202333333,0.25030339199,-0.2627792757089,0.08871877982989,0.4423234362409999,2.96086929,-81.788340855,0.02381630508441283,0.4212561281779691,0.30578100224633814,67.97764765779459
2.640792167338581,2,Yaoyi,69.0,101.5625,-18.92895678111111,0.2859389309485148,-0.2428072350572277,0.1349413191609604,0.5534612891376238,1.1112737526,-0.809816015,0.025976959566297718,0.43928022956672336,0.32722077234890695,68.4086681249179
2.3652276854995957,2,Yaoyi,70.0,115.14945652173913,-18.570742704,0.300047833268,-0.2209011005923,0.087082085697196,0.497770712624,2.904975303,-164.4056208,0.033833884954969994,0.45354980486718094,0.3135130079872355,68.62737942140345
2.2706136775447456,2,Yaoyi,71.0,159.1796875,-16.54455077777778,0.2385122773260396,-0.2735373282990218,0.0911499869753069,0.5073807325831684,3.6104787385,-165.982845,0.0592952337926361,0.5342638250910119,0.3062882954434238,70.04737694049226
2.2832059986770585,2,Yaoyi,72.0,119.22554347826087,-16.190908377777777,0.2128064809211,-0.15788469856785,0.072620974139696,0.406985769509,4.0862808705,3.431927549999997,0.036190962571571686,0.5483512861336702,0.22120075722821572,69.0736407428612
2.125709858556031,2,Yaoyi,73.0,174.8046875,-14.866957197777776,0.3698615681379207,-0.1885387894936633,0.0700439641906138,0.5670891268138614,4.8925376765,175.08836605,0.06833069798960921,0.6010913158094991,0.3463505669969312,71.35051428548162
1.945089526736046,2,Yaoyi,74.0,85.59782608695652,-14.4231510079,0.75224509403,-0.13605743210484,0.07750320040625,0.814835553499,4.893771449,172.70941614999998,0.016745072234607788,0.6187704810068673,0.6435716314067002,72.90872026802816
1.9137543043284173,2,Yaoyi,75.0,141.6015625,-15.622213092222225,0.6211447366851485,-0.0886595514452475,0.0512888868345346,0.6912288804950495,5.6525822555000005,177.16546334999998,0.049130336571041336,0.5710054494365072,0.5247747816516667,72.03287037787224
2.083301101799444,2,Yaoyi,76.0,124.32065217391305,-19.82368019444444,0.6842162772237623,0.0621590264477722,0.0311584459307693,0.7195785830019802,4.41718794,169.8116444,0.03913730959232378,0.4036386288161136,0.5745804398432152,70.22305325638555
2.285649833200888,2,Yaoyi,77.0,118.20652173913044,-20.678177742,0.59401682075,0.14527555223235,0.02610015803769,0.6677020340519999,3.21176317,172.44020039999998,0.03560169316742126,0.36959943862784456,0.5098410448556786,69.225955485728
1.9462195472054984,2,Yaoyi,78.0,181.640625,-19.16529853333333,0.5429781570168317,0.204475372132891,0.0156143873114653,0.6170600031019802,3.485097152,176.1163386,0.07228371357578496,0.42986547831748373,0.4827445971820431,70.46601678878184
2.190575003106732,2,Yaoyi,79.0,97.82608695652172,-20.15024730888889,0.316600427532,0.26226530910853,0.014269761423543,0.456677452741,3.957538246,-0.1062905,0.02381630508441283,0.3906297206576193,0.3380979291018802,67.86866618239473
2.3373374455719937,2,Yaoyi,80.0,152.34375,-20.830400774,0.0569383732396613,0.2999073160188119,0.0436559778361386,0.3403409943118811,4.167213098,-176.6127868,0.055342218206460354,0.36353558420005155,0.2499677171698586,67.4690131118887
2.5153306543846217,2,Yaoyi,81.0,116.16847826086956,-20.947206224444447,0.06353036059138,0.272785325682,0.02393815004851,0.307471104122,2.8928290845,-172.03962625,0.03442315435912042,0.35888260075489264,0.22663929410265957,66.8081686490624
3.355047250834802,2,Yaoyi,82.0,140.625,-21.09525254555556,0.0861748690591584,0.2641334004445544,0.0420315344861584,0.2934974498732673,2.512848179,-165.2421117,0.04856562005873052,0.3529851269758388,0.2265452730454476,67.01949610924825
3.74320120763472,2,Yaoyi,83.0,120.2445652173913,-21.105973978888887,0.1533982747108,0.237706216003,0.032531159697533,0.308157213451,2.792856626,-168.07550824999998,0.0367802319757221,0.3525580351610431,0.22977324358802467,66.80448701015115
3.36139100864708,2,Yaoyi,84.0,110.05434782608695,-19.654527907,0.0093858970156138,0.2104946603772277,0.0368546239507059,0.2579377962287129,2.559540654,-167.13493255,0.03088753793421789,0.4103768656894356,0.16913531847298988,66.89535569474151
3.228654897230425,2,Yaoyi,85.0,88.8671875,-21.6557339,-0.1440997926446,0.1681214977601,0.0377111378789362,0.2392656742299999,1.9013144435,-160.83512605,0.01863564490625706,0.3306581683140031,0.17830110226469253,65.76701973601072
3.1983613272825493,2,Yaoyi,86.0,92.73097826086956,-21.884888857777774,-0.094620666227297,0.1531314867382574,0.048642147560291,0.2408541326921782,2.025131595,-159.04696195,0.020869958063660737,0.3215297053796197,0.14565603645892078,65.44100391750001
2.8066248599618,2,Yaoyi,87.0,102.5390625,-22.629123987777778,-0.0838256068841584,0.1187266087911079,0.0357906275430405,0.2103102218827723,2.2409014440000004,-161.31288024999998,0.02654167607860854,0.29188285477445275,0.11418122306785147,64.94687756340842
2.455219811373653,2,Yaoyi,88.0,86.61684782608695,-23.602430207,-0.1564795896207,0.0961983871629,0.0467120259078,0.281593590741,3.3783493125,-168.23555234999998,0.017334341638758213,0.25311088216633215,0.14828138024256457,64.57026846071167
2.4075514895779784,2,Yaoyi,89.0,118.1640625,-23.88759516888889,-0.1314906637247524,0.075465887892192,0.036238831090594,0.3193687402614851,3.3562703475,-168.3373482,0.035577140275581655,0.24175124233994022,0.11948628633704601,64.56844800428729
2.3276598617190056,2,Yaoyi,90.0,131.4538043478261,-23.94901397,-0.09741926788512,0.07068038522805,0.04069510066627,0.1916303637481,4.429920836,-171.52541135,0.043262195421376735,0.23930460424467923,0.09482078205829393,64.49546541583004
1.9744326323049215,2,Yaoyi,91.0,113.28125,-23.440586984444444,0.1255210303110891,0.0467388748842584,0.040138408684198,0.1693651540334653,4.73407852,-171.02370375,0.032753557714027555,0.2595579600415238,0.10575013464096648,64.61576775190657
1.9120443181025204,2,Yaoyi,92.0,122.28260869565216,-24.456099239,0.1169940352143,0.0317009391298805,0.03918226225438,0.1416150910089,4.6482990645,-171.1595099,0.03795877078402293,0.21910469616707492,0.0951082496201161,64.14929776664628
1.9036804903021136,2,Yaoyi,93.0,118.20652173913044,-23.994619132222223,0.1888962222637623,0.0323818477182239,0.038913063855598,0.206257976549901,3.7867398175,-169.32542990000002,0.03560169316742126,0.2374879076433959,0.15344208502087034,64.78942543523614
1.902686382979574,2,Yaoyi,94.0,125.0,-23.73532409888889,0.241608620875,0.0119113187858779,0.044355890357353,0.250259249858,3.704331675,-169.11001725,0.0395301558617574,0.24781701037722562,0.1965442229776165,65.33676102558279
1.9081310255275603,2,Yaoyi,95.0,124.32065217391305,-23.890935134444444,0.197257823870297,0.012851410748698,0.0478801453659772,0.212239135290099,2.866389085,-166.22751929999998,0.03913730959232378,0.24161819371611093,0.16014173403407705,64.96329838871242
1.919933395500078,2,Yaoyi,96.0,118.1640625,-24.586884985,0.0303803513221999,0.011316503099687,0.05459808964123,0.0877541223729,0.70410396455,-68.96797896999999,0.035577140275581655,0.21389480306118602,0.04043950404948502,63.601796474641745
1.9316263074349012,2,Yaoyi,97.0,157.9483695652174,-24.54311041,-0.0018207889415742,0.0075182308431504,0.0536948076567326,0.0625551753258712,0.7026474458,-64.2082982,0.05858319992928768,0.215638577619812,0.03252572085735365,64.01953269688232
1.9050452934591624,2,Yaoyi,98.0,146.484375,-24.83842160777778,-0.0573660833189603,0.0075153904556336,0.0540985839522742,0.1170534831477227,0.70095137995,-63.334409315,0.051953919132595436,0.2038747591575598,0.05388260316155583,63.91663631783507
1.9119910898790784,2,Yaoyi,99.0,161.0054347826087,-25.601829503,-0.550816011293,0.0092950482896471,0.05731159531441,0.561763736118,0.6738581121,-63.15227776,0.06035100814173893,0.17346415515871588,0.46003065463777454,66.96883526184156
1.9101090179442228,2,Yaoyi,100.0,173.2336956521739,-25.57972704222222,-0.4894915865841584,0.0062542940302188,0.0455666626507524,0.494524397760396,0.64006159055,-62.93519312000001,0.06742224099154398,0.17434461393615283,0.4067914045615866,66.6949114235574
2.015202079285541,2,Yaoyi,101.0,1318.359375,-22.21560477333333,-0.374148264253,0.0068234945516757,0.045136201285909,0.377986317894,0.7257552263,-65.650413465,0.7296137339055794,0.3083555283675422,0.3086255339714574,80.76154529029375
2.2870009860080285,2,Yaoyi,102.0,460.5978260869565,-25.117700138,-0.2867618753514851,0.0022908023198168,0.0378889442967227,0.2925088680128713,0.7086561161999999,-65.63770876333334,0.23359621296196265,0.1927496072680907,0.23361850144762897,68.85386755803736
2.536899695780209,2,Yaoyi,103.0,158.203125,-25.73725722888889,-0.217716016253,0.0019898345297979,0.036699476016429,0.224292631103,0.71655591335,-66.73634758,0.05873051728032528,0.16806934726080683,0.17503405835508282,64.59171497957685
3.2179553852780534,2,Yaoyi,104.0,163.04347826086956,-24.58916850888889,-0.1675761723039603,0.0006854981097207,0.0350537683702604,0.1800800910346534,0.7332979411,-64.942559795,0.061529546950039773,0.21380383813779255,0.13260013626836836,64.85703808680125
3.234970969555316,2,Yaoyi,105.0,165.0390625,-25.833294199,-0.1251927151292,0.001277937120312,0.0382860419692,0.1352382746025,0.807103799,-65.73790298,0.06268353286650101,0.16424368304436895,0.09813214988192973,64.00965205291789
3.2324278563942164,2,Yaoyi,106.0,161.0054347826087,-26.544576352222222,-0.0952330080596039,-0.0006737490420529,0.0360697713000742,0.1081282715735643,0.7295045973000001,-63.512875025,0.06035100814173893,0.13590952508181672,0.0732450095246621,63.423894540013876
3.216970071114069,2,Yaoyi,107.0,166.9921875,-26.34005501333333,-0.0743696689761386,-0.0047232925167213,0.0371187559977217,0.1027464701010891,0.7752897019,-61.63276078,0.06381296589112266,0.14405669972487298,0.057342701148410426,63.463681323708215
3.2067098506168312,2,Yaoyi,108.0,161.0054347826087,-26.264052765,-0.0549835952673,-0.005569895736007,0.03542713943132,0.0693975190186,0.75052843165,-64.458974685,0.06035100814173893,0.14708427422541434,0.04227694998511003,63.31024705342063
3.0751776968841145,2,Yaoyi,109.0,163.04347826086956,-26.41386053333333,-0.0423593654286336,-0.0039109376883736,0.0356325732480594,0.0594450006448514,0.7191475331,-65.439772715,0.061529546950039773,0.14111663261828977,0.03358862865390371,63.1926995596515
3.022873893498756,2,Yaoyi,110.0,160.15625,-25.60113410888889,-0.03437568418795,-0.0078735189009422,0.036344731289821,0.0565736995548,0.693718592,-66.169359535,0.05985995030494692,0.17349185641130774,0.02943926895351843,63.51461543466278
3.0422069320319265,2,Yaoyi,111.0,154.8913043478261,-25.21938117333333,-0.0253443896116752,-0.0065514512659019,0.0365828152627742,0.0574993186314059,0.7075294221499999,-64.90243696499999,0.05681539171683641,0.18869910986157096,0.024597883098855647,63.597480217466426
2.6438572547253734,2,Yaoyi,112.0,162.109375,-25.617419734,-0.019902678042981,-0.0059606571175658,0.03626924373441,0.0539404699355,0.7420750963,-63.45885602,0.060989383329568554,0.17284311319129766,0.0218720448617669,63.46888138378108
2.3632867186826148,2,Yaoyi,113.0,137.5679347826087,-24.05055179,-0.0160980942560632,-0.0083112232830182,0.0401033717044425,0.0500329380396831,0.7218496801500001,-64.525025955,0.04679781184627925,0.23525981186795503,0.02376080932865655,63.9491604539703
2.278317810215573,2,Yaoyi,114.0,160.15625,-25.63453022888889,-0.0108937815132335,-0.0065676949471933,0.035099028772107,0.04370390147551,0.72707590385,-63.395675235,0.05985995030494692,0.17216151101302976,0.01805116746719263,63.40754647799284
2.3556495024545456,2,Yaoyi,115.0,165.08152173913044,-26.531756569,-0.0085111679634792,-0.0095188614684176,0.0366909250706722,0.0442285425066435,0.71761445475,-64.2514705,0.06270808575834062,0.13642020535295615,0.019348682121572994,63.045993636374874
2.252065662902823,2,Yaoyi,116.0,164.0625,-26.671222983333333,-0.0060391882051404,-0.007748749551494,0.03461228315209,0.03981488323612,1.0246888875,-47.181918835000005,0.0621188163541902,0.13086451497567086,0.016893057995718334,62.9478949707576
2.1748835116837317,2,Yaoyi,117.0,161.1328125,-26.16878196111111,-0.0044932740750396,-0.0106145388609247,0.0379945068017623,0.0458961191211881,5.3360578255,-5.358270769,0.060424666817257736,0.15087941795899218,0.020080321070491652,63.17968892041699
2.1898848966872806,2,Yaoyi,118.0,159.98641304347825,-26.750188738,-0.0049114073448831,-0.0082327924368408,0.0361707833970722,0.0430189803515643,7.521717874,-4.370483485499999,0.059761738737588506,0.12771888822794278,0.018125289379410093,62.87286374852236
2.440716606593612,2,Yaoyi,119.0,164.0625,-27.15611836,-0.004737349642131,-0.0077668441257477,0.03742233220301,0.04180250399499,7.3975949655,-3.9923616505,0.0621188163541902,0.11154854854020736,0.019060273845985003,62.733441100334176
2.5798170048694584,2,Yaoyi,120.0,159.98641304347825,-25.743205433333333,-0.3784672396889406,-0.0071073159538752,0.0390169764035336,0.4126649746719801,5.997607404,-7.866403836,0.059761738737588506,0.16783239858501212,0.311720227856932,65.70298538062737
2.4388050887327086,2,Yaoyi,121.0,161.1328125,-26.60900426,-0.964845504073,-0.0156124495154009,0.04658369121725,0.968610510588,9.720708054,1.905748787,0.060424666817257736,0.13334301823512806,0.8127588371736576,69.31068025255595
2.4019645760975203,2,Yaoyi,122.0,151.83423913043478,-25.05375459111111,-0.830715830980198,-0.0199137433044083,0.0457337482864336,0.8340382798138614,6.3187374730000005,-7.5622283845,0.05504758350438515,0.19529689911049616,0.6981997003726506,69.03011206239486
2.2521949809305752,2,Yaoyi,123.0,151.3671875,-24.37910644,-0.660675492508,-0.006710345814601,0.05664054545974,0.69021599686,6.452371642999999,-4.8325071295,0.054777501694149536,0.2221717295784467,0.553524961628613,68.18981048185326
2.2502823657224487,2,Yaoyi,124.0,118.20652173913044,-22.99600749333333,-0.5609865293782178,-0.0323770078501485,0.0682074232253168,0.8067518422772277,6.4034534175,-3.5910830866,0.03560169316742126,0.27726792994726085,0.4704500190534097,67.80284917514284
2.475097351078967,2,Yaoyi,125.0,119.22554347826087,-20.534216852222222,-0.452544653159,0.00952425731233,0.0595343734136699,0.642103215324,6.399785532,-6.2400680995,0.036190962571571686,0.3753341679092057,0.37675381762214866,68.24185980731909
2.424754735415012,2,Yaoyi,126.0,101.5625,-22.56262339333333,-0.3022612953970297,-0.024594368516392,0.0748606109798514,0.3660869263851485,6.166322205,-5.1843275455,0.025976959566297718,0.29453192777460707,0.25338448148018466,66.08099817646271
2.452766813065006,2,Yaoyi,127.0,117.1875,-23.44859691,-0.223589830370297,-0.0190509982141188,0.0764158256116267,0.2712368229653465,5.929627587000001,-6.459661092499999,0.035012423763270836,0.2592388820287672,0.18894527447316328,65.32267725539593
2.587235926614211,2,Yaoyi,128.0,105.46875,-20.884263104,-0.1635929660999,-0.004716181053692,0.08084651552442,0.221429254703,5.7158676985,-7.8884085795,0.028235825615541,0.36138996061096335,0.1422999180568633,66.03979538409729
2.5854925339949704,2,Yaoyi,129.0,69.29347826086956,-16.768257313333336,-0.1337069987187128,-0.0052031184337841,0.0886642719156534,0.2010489960114851,5.8224628305,-8.431280354,0.007316761768201057,0.5253524018436102,0.12345591175653763,67.43821135153965
2.641051292524604,2,Yaoyi,130.0,95.703125,-18.831662454444444,-0.029587751007516,-0.0036901273653229,0.08472481579266,0.1784063607885,5.3452633785,-10.647579775,0.0225886604924328,0.443155980994121,0.06296100558443504,66.27333302645359
2.982460699522812,2,Yaoyi,131.0,83.55978260869566,-18.283178863333333,-0.0026202306874108,0.0398196163862371,0.0949878851195544,0.1855892572392079,4.8468828475,0.3807142975000001,0.015566533426306952,0.46500500481681606,0.07426561140690455,66.48551561758316
3.156466826258127,2,Yaoyi,132.0,82.54076086956522,-19.516873739,0.012352209444544,0.0874975979799,0.1015482843321299,0.2016761938122,3.791049382,1.6342226595000002,0.01497726402215653,0.41586036463939036,0.10128944244717536,66.10018519569321
3.139298371440148,2,Yaoyi,133.0,97.65625,-18.256990353333336,0.0468601608292128,0.2211145554490099,0.0893825473569108,0.2825591832945544,4.0101589555,7.255920143,0.02371809351705444,0.46604823270575196,0.1940816782862751,67.61959408910032
3.120283391934032,2,Yaoyi,134.0,70.3125,-15.243036728888889,0.08830668561491,0.516782462526,0.097004383810758,0.5697079890669999,3.3603587305,10.3064442255,0.00790603117235148,0.5861100642868623,0.4423219375773611,70.73001689550827
3.084749387922365,2,Yaoyi,135.0,68.359375,-12.078544256666667,0.1967996547157921,0.7126165029617821,0.0827466407267613,0.8167648121938614,3.782882277,9.901825225,0.00677659814772984,0.7121686602646513,0.6226413482750845,73.66268667233109
3.1013665487646294,2,Yaoyi,136.0,68.27445652173913,-13.347242950999998,0.245988688983,0.7762705068469999,0.08767547283959,0.894855341557,3.15537064,4.039382324,0.006727492364050635,0.6616296314850364,0.6869115099583248,73.56939750476805
3.059678295995334,2,Yaoyi,137.0,67.3828125,-12.15578032988889,0.2335135511011881,0.7800419492981188,0.097175519544693,0.8740377941970296,3.064654146,17.5884213545,0.006211881635419019,0.7090919359448132,0.6877696457942969,74.13549803040051
3.0092259598453697,2,Yaoyi,138.0,70.3125,-12.263427646,0.2735337504953465,0.8612719073405941,0.0974091302803069,0.9794647674841584,1.32192517345,-52.534668175,0.00790603117235148,0.7048037697858289,0.7638184068692985,74.72631311583136
3.028405624021438,2,Yaoyi,139.0,69.3359375,-12.3353893713,0.246221054415,0.9004528313768,0.05763474167327,1.028235492548,1.275305554,4.849495650000009,0.00734131466004066,0.7019371508461141,0.786397139902511,74.86124922257427
3.1367984971951026,2,Yaoyi,140.0,67.2554347826087,-11.539936284444444,0.2011573594862871,0.88325583090099,0.0941118622169802,1.009353519050495,0.3374353933,-85.22948862,0.006138222959900221,0.7336242855684773,0.7654001091416638,75.04945675915305
3.196632902414029,2,Yaoyi,141.0,70.3125,-12.229415745555556,0.4773143423215999,0.7449250310767,0.0674818738431,1.02401918287,1.01379238015,-45.25837791,0.00790603117235148,0.7061586450001637,0.7453338905834009,74.5946954881162
3.1931916521956145,2,Yaoyi,142.0,74.21875,-15.513641117777777,0.7558025259524753,0.4283892269015346,0.0497365726529009,0.9186054409386138,1.1895527316,-63.57857191,0.010164897221594759,0.5753304496636029,0.7306949646443536,72.95282305754996
3.2083984577934936,2,Yaoyi,143.0,72.35054347826087,-16.396688702,0.543941917865,0.19740826718045,0.04971810286397,0.671655509119,1.6861273655,-170.0600539,0.009084569980652324,0.540153959396757,0.48306547623594737,70.52806272226171
3.198126645506364,2,Yaoyi,144.0,90.8203125,-20.252529378888887,0.3201682862396039,-0.0107080219465544,0.0247803552030762,0.494539339530693,2.346312928,-140.13033505,0.0197650779308787,0.3865552808379388,0.2610348979907991,67.12224411259923
3.1368004768240905,2,Yaoyi,145.0,81.52173913043478,-19.747224074444446,0.1508352049231,-0.23842961177995,0.0451474513255599,0.439163416154,2.220556751,-151.8055784,0.014387994618006108,0.4066842834434227,0.23059018846637308,67.01269280141219
2.13821314559754,2,Yaoyi,146.0,89.84375,-18.840672049,0.3688989702673267,-0.2521851456992277,0.0466925700753366,0.679241911909901,2.5304153515,-149.7928823,0.019200361418567877,0.44279708083873376,0.3705498733781831,68.66197118546162
2.196388018220957,2,Yaoyi,147.0,80.50271739130434,-18.462282785555555,0.4928800267059406,-0.3117371635496039,0.0434589845607821,0.645961901059406,2.4401398345,-154.72123225,0.013798725213855686,0.45787034130674814,0.4865045411873783,69.66245492945711
1.989170266179268,2,Yaoyi,148.0,80.50271739130434,-19.64596254111111,0.354693691007,-0.2774271064069,0.0257903374625749,0.517102251585,2.554161667,-155.34237885,0.013798725213855686,0.410718069850124,0.3720463102522976,68.18096182449699
1.90758678315076,2,Yaoyi,149.0,85.9375,-20.6503524,0.3195201506039604,-0.2476095800579207,0.0235256353576831,0.5127601848188118,3.542764335,-169.28041825000005,0.0169414953693246,0.37070787025658486,0.332578443775491,67.44795190066944
1.915123799915618,2,Yaoyi,150.0,86.61684782608695,-20.148860297777777,0.2830728273689999,-0.1970374678267999,0.0342962411424,0.432841655549,2.9140063365,-173.30896955,0.017334341638758213,0.3906849727003425,0.2826778291629947,67.29632913848323
1.9421368080674903,2,Yaoyi,151.0,102.5390625,-20.900114315555555,0.2064908653970297,-0.1701276347970297,0.0393791100981287,0.3370249409,2.311612459,-150.0818298,0.02654167607860854,0.36075852239748035,0.21750398648561708,66.59996768222688
1.9504857585077475,2,Yaoyi,152.0,79.4836956521739,-18.296840105,0.247299213011,-0.08742256650915,0.0424297064290999,0.392865041202,2.6086917065,-163.85966965,0.013209455809705263,0.46446080477243923,0.2134618225590818,67.54541335393603
2.2583330379850444,2,Yaoyi,153.0,104.4921875,-17.325444674444444,0.2663167207333663,-0.0570624521713663,0.0370553744978019,0.4301528312039603,2.422384433,-156.24509455,0.027671109103230177,0.503156660487047,0.22130325487824262,68.3617281469351
2.3395873934325886,2,Yaoyi,154.0,99.8641304347826,-13.451166363333334,0.134292194244478,-0.06766110087579,0.0335225083427,0.5273669089592999,1.9127499835,-160.11096179999998,0.024994843892713677,0.6574898082549431,0.11793485224173468,69.33325339484747
2.37913027622492,2,Yaoyi,155.0,112.3046875,-12.561411048888887,0.0822332812500495,-0.0367293524221782,0.0023775531346633,0.5867820742724752,1.9188842915,-151.31198684999998,0.032188841201716736,0.6929335031561602,0.06319720764573175,69.46455652307411
2.416522786813469,2,Yaoyi,156.0,78.46467391304348,-9.9892783077,0.06822168184316,-0.0564392784472,0.0494773203834999,0.706365145074,1.9869617895,-157.7513328,0.012620186405554849,0.7953952548806257,0.07289471698675953,70.38030452257269
2.8866913936545417,2,Yaoyi,157.0,70.3125,-14.39455874711111,-0.0151890483241984,-0.0728553832739574,0.0596551350888138,0.2845159691326733,1.939326208,-152.79642009999998,0.00790603117235148,0.6199094630972077,0.06771987473261154,68.13879317847442
3.199661704540323,2,Yaoyi,158.0,110.3515625,-16.35256520888889,-0.0053797199065316,-0.0865086926052772,0.0466588877986561,0.1595480883396039,1.6498654345,23.55681625,0.0310594081770951,0.5419116332228275,0.0703351979034275,67.68680934544325
3.1892283448724283,2,Yaoyi,159.0,136.54891304347825,-17.064877834999997,-0.006514356646,-0.067106767289654,0.04745289151616,0.1431718774255,1.6451547674999998,4.774303099999997,0.046208542442128825,0.5135364260346234,0.05665369057040941,67.53983748582134
3.196294130272753,2,Yaoyi,160.0,122.0703125,-17.50706925777778,0.0039142238528722,-0.0481829381441851,0.0498916859693366,0.1391032623762376,2.4670100365,-167.4913022,0.037836006324824936,0.49592158561452776,0.04554972720332381,67.07217697149743
3.1744634911090666,2,Yaoyi,161.0,127.37771739130434,-16.11906954222222,0.004655703303088,-0.03433038924945,0.0484035552251291,0.1319288899809,3.1462374645,-167.4371367,0.04090511780477504,0.551213009720092,0.03703955565297998,67.72897491796044
3.144455197234038,2,Yaoyi,162.0,106.4453125,-14.062706753333334,-0.0013590224547821,-0.008448434563,0.019189809158,0.4723190960721782,2.961396895,-162.3876724,0.028800542127851818,0.6331288961580422,0.004085256968381021,68.2062396522006
3.018028366970905,2,Yaoyi,163.0,110.05434782608695,-13.6699101626,0.02273045516375,0.01227945254407,0.042773148482907,0.4553174811623,2.839388811,-167.59010089999998,0.03088753793421789,0.6487760772360035,0.028864200851670834,68.63397729232977
2.96916956093182,2,Yaoyi,164.0,68.27445652173913,-15.809702688888889,0.1660113610559406,-0.0021491774022891,0.0400161208259227,0.3179177173468316,2.960217402,-166.2637317,0.006727492364050635,0.5635367398334016,0.13223651475071915,67.95488284328758
2.704153408783581,2,Yaoyi,165.0,74.21875,-15.10020027777778,0.13758050277134,-0.00486652283671,0.03561995721714,0.2547914923242,2.762211462,-171.0047649,0.010164897221594759,0.5918000011849811,0.10778204671785073,68.16715433239447
2.44268673071683,2,Yaoyi,166.0,72.35054347826087,-18.238137488,0.087168079064297,-0.0210183876348811,0.0485698562892079,0.1936119582191089,2.822813651,-166.64621345,0.009084569980652324,0.46679924278238827,0.07336369221352149,66.37019185070987
2.8390601831264277,2,Yaoyi,167.0,78.125,-19.89674791888889,0.0657993996704,-0.0184992531405452,0.03497100398403,0.1275776641698,2.7912628435,-168.8688618,0.012423763270838039,0.40072795203757433,0.05180221720060853,65.47162842747252
3.180584520172294,2,Yaoyi,168.0,74.38858695652173,-16.982102745555558,0.0524344920650693,0.0361856051479306,0.0446624689062138,0.134537618840198,2.010407461,-162.78317520000002,0.01026310878895316,0.5168337988831593,0.05268098468666982,66.82871563987032
2.760153918652261,2,Yaoyi,169.0,78.125,-19.199345053,0.0429642504130455,-0.0057299004611683,0.0350857891122277,0.0859421918946534,1.6381091375,-162.92033465,0.012423763270838039,0.42850922403507224,0.033823044049622754,65.66117030623461
2.152009515146495,2,Yaoyi,170.0,121.26358695652172,-21.88438688,0.0336348454079761,0.02188118875067,0.0424830154888999,0.1326413203181,1.8743644935,-162.45275114999998,0.03736950137987251,0.3215497018291084,0.03610919380311259,64.89485999997166
1.8745288002899767,2,Yaoyi,171.0,111.328125,-23.271155473333334,-0.0015238791986386,-0.002842694446907,0.0541617686179901,0.2051357637824752,3.2747891535,-170.34143519999998,0.03162412468940592,0.26630731988122763,0.03253304567680407,64.08843469777729
1.832092358112247,2,Yaoyi,172.0,87.63586956521739,-22.004983751,-0.15573498617366,0.01899428024426,0.03109091447029,0.3018372266187,3.043169563,-168.00853825000002,0.017923611042908634,0.31674568590206187,0.1229614752398851,65.143112253602
1.7975160849297056,2,Yaoyi,173.0,95.78804347826087,-22.2709333,-0.1136680320018712,0.009454095951548,0.0444218646649009,0.3448219504322772,2.757153449,-168.8466382,0.022637766276112005,0.30615149835314237,0.09084456001778246,64.8533297859022
1.7801509992803668,2,Yaoyi,174.0,122.0703125,-22.137672746666667,-0.0214117647751,0.011691257728484,0.04279066673927,0.2117439476678,4.0094845625,-172.0805059,0.037836006324824936,0.3114599762211989,0.028253578259177053,64.7202684672243
2.0793856350679825,2,Yaoyi,175.0,117.1875,-23.001824555,0.1829067600653465,-0.0024942658858069,0.0321788429578514,0.2159117203386138,3.9514948275,-172.7578278,0.035012423763270836,0.2770362053870499,0.14503118086210343,65.18493238680685
2.414204469994149,2,Yaoyi,176.0,134.765625,-23.214360155555557,-0.03709860914886,0.005983313982584,0.040579039279296,0.1135369094574,4.467016329,-173.1792409,0.0451773209848656,0.26856978000082815,0.03343010905647938,64.39382465215908
2.352044570101443,2,Yaoyi,177.0,109.03532608695652,-23.383377093333333,0.1459949774059405,0.0053267552051396,0.0330681465633762,0.1962229467895049,4.8827459855,-173.5948424,0.03029826853006747,0.26183693482588927,0.11427465943134764,64.6622058639628
2.467178916982857,2,Yaoyi,178.0,128.90625,-23.44989523,0.1789421314732673,-0.0047080322248375,0.0400598765225672,0.1961502579782178,5.018998436,-172.67223984999998,0.04178902191100068,0.2591871630255569,0.1430625574583622,65.0905268541936
2.917121365595485,2,Yaoyi,179.0,102.9211956521739,-22.684141627,0.1582806157289999,0.002983822087418,0.03966329514278,0.171715928226,2.844534317,-168.55591455,0.026762652105164944,0.2896912090634122,0.1257524654098977,65.01756727414343
2.85649617415739,2,Yaoyi,180.0,97.82608695652172,-24.471150286666663,0.2009124009495049,-0.0051276220516564,0.0465789140971722,0.2106056893594059,0.4849238067,-55.52906914,0.02381630508441283,0.21850513274465921,0.16263410773655926,64.39946055651664
2.60126398458229,2,Yaoyi,181.0,134.765625,-23.85917388777778,0.2125701587631,-0.0034832236401182,0.049264394008074,0.225599983594,0.6443497977,-57.78489575,0.0451773209848656,0.24288341339871375,0.1728397097390715,65.20086505839444
2.348678229597119,2,Yaoyi,182.0,126.3586956521739,-23.985806826,-0.0039528762662673,-0.0062318321817128,0.056783440119198,0.1980657274570297,0.6036080472,-58.581544085,0.040315848400624625,0.23783894875328973,0.03510282435405596,63.94120694788442
2.082526794224004,2,Yaoyi,183.0,129.8828125,-24.756974164444443,-0.388692038624,0.00894143572987,0.04682763705009,0.420034281407,0.55236021985,-51.885722275,0.0423537384233115,0.20711924478762697,0.3211883726046931,65.9020126867553
1.892838978074227,2,Yaoyi,184.0,148.77717391304347,-24.961542283333333,-0.528548040740594,0.0270004145372128,0.0546746678461118,0.5424794064831684,0.698209664,-60.46006256,0.05327977529193388,0.19897020664792114,0.4413655157289378,66.98416211144523
1.8597499643772128,2,Yaoyi,185.0,340.8203125,-21.42359535888889,-0.414847888829,0.00763366099816,0.0469075509494699,0.424421414971,0.5300972764,-56.93337783,0.16433250508244862,0.3399054832694561,0.3433983524006751,70.11270272008784
2.274768691502585,2,Yaoyi,186.0,434.1032608695652,-21.973966637,-0.3017066746950495,0.0095787270416346,0.0407223255321386,0.308339591950495,0.6183402367499999,-56.81514474,0.2182752084540517,0.3179812628157201,0.2467357656548953,70.15516544810885
2.843330371788053,2,Yaoyi,187.0,119.140625,-22.984389142222224,-0.224297619889,0.0084837836629422,0.03787088965687,0.24136802107,0.559989372,-59.878957465,0.03614185678789248,0.2777307507760349,0.18088161511025191,65.50265906595229
3.198248457938256,2,Yaoyi,188.0,104.95923913043478,-24.315885855,-0.1679860801267327,0.0105703171216485,0.0361142853984752,0.1875667205524752,0.6020650317,-55.006073955000005,0.027941190913465787,0.2246901423261307,0.13340828172186525,64.3223717799578
2.8706714317234776,2,Yaoyi,189.0,124.32065217391305,-25.315475344444444,-0.123820113640693,0.0097653111142663,0.0335154411934059,0.1438883042099999,0.5147746093,-50.531789995,0.03913730959232378,0.18487116702452888,0.09618524346653341,63.77068214387309
2.405349752825479,2,Yaoyi,190.0,151.3671875,-26.139818366666667,-0.0936445770783,0.010288562222148,0.035130264596488,0.1107174351557,0.5849954534499999,-57.07965516,0.054777501694149536,0.15203319224734524,0.07213935107638898,63.49706314946224
2.4481702037145103,2,Yaoyi,191.0,145.7201086956522,-25.665495596666663,-0.0703024301193069,0.0062454653132643,0.0307579463957049,0.0825473900389109,0.61903438375,-54.907796430000005,0.05151196707948263,0.17092799542711323,0.05198437225721889,63.49725026477276
2.592506881633176,2,Yaoyi,192.0,180.6640625,-25.801364218,-0.0532346218256599,0.006340131546755,0.034142441833617,0.0787095643662,0.58985703935,-53.374044075,0.07171899706347414,0.16551562431450606,0.04049235725985617,63.744506291122406
2.874902842243588,2,Yaoyi,193.0,157.9483695652174,-24.75884907111111,-0.0353352300749782,0.0041968723232435,0.0336325360291643,0.0722883077158415,0.60519951155,-56.677616265,0.05858319992928768,0.20704455726535786,0.028002237720685802,63.880216587535536
3.0042346140396696,2,Yaoyi,194.0,148.4375,-25.87781329888889,-0.03192887332589,0.0047914643208093,0.03251335492718,0.0553233810701,0.5629799314,-55.86153987,0.05308335215721708,0.1624702500924975,0.025313732525656527,63.21381990445956
2.4344545061313627,2,Yaoyi,195.0,144.70108695652175,-25.329016008,-0.0225409982935821,0.0047553060226766,0.0352479132977247,0.0540387931220495,0.5341655864,-59.405326625,0.05092269767533221,0.1843317702487728,0.022137399637628348,63.40753439359295
1.8426022088098049,2,Yaoyi,196.0,137.5679347826087,-24.922724716666668,-0.0165615269391707,0.00577590227952,0.036347187119389,0.0502588167676,0.5604741026,-53.44068284,0.04679781184627925,0.2005165171530739,0.020639518043022886,63.50727058710665
1.8002819753987465,2,Yaoyi,197.0,120.1171875,-25.825030526666666,-0.0091592164566475,0.0082609430175851,0.0336155733150594,0.0545630596742574,0.5907946040500001,-59.956860615,0.0367065733002033,0.1645728691432789,0.0167454479104827,62.84296947900727
1.7724452937846176,2,Yaoyi,198.0,120.2445652173913,-24.195658741,-0.0080347758548633,0.0051249774171318,0.0360138927590099,0.0507180199286138,0.6558870566,-58.17762649,0.0367802319757221,0.2294794288617561,0.017983167504543065,63.63322312589186
1.7521365204653792,2,Yaoyi,199.0,194.3359375,-21.40865247888889,-0.004742416688768,0.006807629594179,0.0366512247917399,0.04588990125198,0.6091308443,-55.70686305,0.07962502823582561,0.34050073779737783,0.018261288967235553,65.82459973002292
1.6987830445477468,2,Yaoyi,200.0,808.0842391304348,-21.21635102222222,-0.0058844022570631,0.0049882140823055,0.0354743047515049,0.0425614325883366,0.5819080155666667,-55.83766327666667,0.43453707977725614,0.3481611294224718,0.017170175045751284,73.00603654898079
1.7824832711276173,2,Yaoyi,201.0,1137.6953125,-20.527760797777777,-0.0040699560882578,0.00641048049432,0.0362681327628515,0.05281830612011,0.9216673749,-20.82016826,0.6251411791280777,0.3755913469563884,0.01781289130557351,77.1524228764828
2.294618210759268,2,Yaoyi,202.0,467.7309782608696,-22.1721464,-0.0044048810608168,0.005582878085195,0.0371060136995544,0.0454880796800594,5.354824793000001,-6.6921275075,0.23772109879101563,0.3100867069290229,0.018434796548126926,68.6229408313536
2.342068164488759,2,Yaoyi,203.0,140.625,-26.184078857777777,-0.002345219412382,0.00939507368341,0.033614157593002,0.03898394327056,6.853769744,-3.742714196,0.04856562005873052,0.15027006106099233,0.016038777341450126,62.90286335263812
2.321404580031287,2,Yaoyi,204.0,154.8913043478261,-26.73052840888889,-0.0045245484361134,0.0085921845274029,0.0357750311049673,0.0403988862663366,6.846032438,-3.423510178,0.05681539171683641,0.12850206388911511,0.017825748259403355,62.820938587081336
2.17690042403629,2,Yaoyi,205.0,138.58695652173913,-25.91635712888889,-0.425022200582271,0.02156639658802,0.03881628502744,0.4614002818236,6.736959573,-3.1391123425,0.047387081250429675,0.16093484397728092,0.3517619066151441,65.69305500565711
2.0548396837646865,2,Yaoyi,206.0,155.2734375,-25.17913308,-0.9146133984297028,0.019418636108192,0.036160408933593,0.9181990439366337,6.7254297125,-3.533988239,0.05703636774339282,0.1903024058658808,0.7694951020516717,69.5803170416718
1.9023143693225495,2,Yaoyi,207.0,139.60597826086956,-24.53286299333333,-0.7458836289120001,0.017401353250191,0.0403432269220999,0.749230962595,6.714440692,-3.21832353,0.04797635065458009,0.21604678682515496,0.6254379501671454,68.55559205633062
1.819177545494372,2,Yaoyi,208.0,141.6015625,-23.842065147777777,-0.590759610719802,0.0191624332629186,0.0517189698060297,0.595220092550495,6.5891449665,-3.762223369,0.049130336571041336,0.24356494567040682,0.49379608685239906,67.8557547742849
1.889534115112509,2,Yaoyi,209.0,93.75,-23.005390176,-0.470917956720792,0.0110443113818128,0.0552259676525208,0.4800327459039604,6.511398757,-4.7183458485,0.02145922746781116,0.2768941677045481,0.391925184501294,66.88731603782115
1.869623489579754,2,Yaoyi,210.0,123.046875,-24.283303871111112,-0.374590455547,0.012714227741236,0.0684706029320399,0.398125874399,6.3692802595,-2.90898560965,0.038400722837135755,0.22598805634528463,0.3121220149600108,65.97684725256622
1.814260943103848,2,Yaoyi,211.0,113.11141304347828,-22.77235316111111,-0.2968264539108911,0.0156668472537227,0.0731373091623336,0.3366344391613861,6.6129473025,-6.374773895,0.032655346146669165,0.28617727365775,0.2480296770429394,66.0714716231699
1.7743519902746714,2,Yaoyi,212.0,88.65489130434783,-22.923180416,-0.229952140924,0.00784148346846,0.07255342125985,0.31291963331,6.453887464499999,-4.7699939185,0.018512880447059055,0.2801690204691664,0.19253878863643836,65.27259616366268
1.7659679513255806,2,Yaoyi,213.0,102.5390625,-22.17385299111111,-0.1862751289641584,0.0097768300593594,0.079613013658792,0.2474270832940594,6.209266864,1.060604435,0.02654167607860854,0.3100187243121378,0.15964444589227222,65.528213780456
1.7408883989492805,2,Yaoyi,214.0,81.52173913043478,-20.004045166666668,-0.1495031103465,0.009247781225891,0.0768304840922,0.204020250956,5.8806374875,-3.23009578635,0.014387994618006108,0.39645373096551434,0.1301522422292017,66.0864226017799
1.720525833955332,2,Yaoyi,215.0,106.4453125,-18.36170327,-0.1295661040710891,-0.0040467081547128,0.0882957583854653,0.1812750927985148,5.046613676,3.647148091,0.028800542127851818,0.4618769593114849,0.12031191202160146,67.08102965046767
1.729248954858684,2,Yaoyi,216.0,79.4836956521739,-19.27605074888889,-0.05757909958318,0.014300353327952,0.11460667809138,0.183107575039,4.9831462195,-4.800791652,0.013209455809705263,0.425453627470337,0.09653214725976726,66.14188982391629
1.8663147561387337,2,Yaoyi,217.0,77.1484375,-17.5272139625,0.0132443769262336,0.0046768701123049,0.096497879356594,0.287644658740891,4.949343088,-6.387099262,0.01185904675852722,0.4951191146919514,0.06954648340671199,66.73498217872766
2.764745435115032,2,Yaoyi,218.0,81.52173913043478,-18.39188542333333,0.06699649574252,0.027892635511969,0.06694974213743,0.2355157109363,4.4874739045,-7.789093579999999,0.014387994618006108,0.4606746433299543,0.07059145708506094,66.38058726900006
1.9221231173911035,2,Yaoyi,219.0,85.9375,-19.094803114,0.1181936256755148,0.0563096799613564,0.1050262344306544,0.2549902255393069,4.5494457305000005,-4.34612176075,0.0169414953693246,0.4326736864778857,0.1297231162797015,66.56869907535874
1.7918201204190525,2,Yaoyi,220.0,78.46467391304348,-19.49653963111111,0.1217300680144851,-0.0070013644782277,0.0970856634667227,0.2831900653079208,4.4037207725,-4.2351662317,0.012620186405554849,0.4166703804992589,0.11947175773915615,66.20822235601545
1.7860620414210202,2,Yaoyi,221.0,95.78804347826087,-18.940974252222222,0.1396985035223999,-0.000301434199161,0.07095896156708,0.3177761433772,3.573137432,-1.7713180625000002,0.022637766276112005,0.43880150966178816,0.12017830765339473,66.67979990269086
1.7694583249563347,2,Yaoyi,222.0,82.03125,-19.490338817,0.1431517022157425,-0.009968895170194,0.1000217588620693,0.2231372556333663,1.03648196145,-111.47294873,0.01468262932008132,0.41691739196401256,0.13577716174314824,66.38287858391496
1.75560606973463,2,Yaoyi,223.0,78.46467391304348,-16.755192985555553,0.150169046081004,-0.0117290311067824,0.06002991909383,0.318871706569,1.6584611275,4.845429050000007,0.012620186405554849,0.5258728236273613,0.12485056714160242,67.56168214877225
1.7802193728852755,2,Yaoyi,224.0,77.1484375,-13.267013,0.1633082587535247,-0.0238583158673663,0.0310978548758415,0.4767427915260396,0.72907829615,6.481857150000003,0.01185904675852722,0.6648256179085161,0.12981194742920815,69.2535839295064
1.734569086993018,2,Yaoyi,225.0,96.8070652173913,-12.778454122,0.719869575542,0.0104032202736699,0.1574834860403,1.243188166224,1.502625728,8.930198564999998,0.023227035680262416,0.6842875211216768,0.6167026834776485,73.60961243488656
1.6928812192638234,2,Yaoyi,226.0,87.890625,-17.049003323333334,1.04955462930099,-0.0024749530706306,0.0243425898020495,1.1540502997623765,0.8356983118,-37.62610294,0.01807092839394624,0.5141687924156776,0.8844156731009825,73.60676946167492
1.7622740943725368,2,Yaoyi,227.0,77.44565217391305,-16.257524014444446,0.871044730775,0.0837821499777179,0.074291506110231,0.952012574595,1.66814910765,-71.836262575,0.012030917001404427,0.5456976303888456,0.7375607601182627,72.68947598564034
1.7946932149982775,2,Yaoyi,228.0,75.40760869565217,-12.474563273888888,0.5150604684783366,0.0096070842292277,0.0553121069786138,1.0748626863,0.335738561,54.07328277,0.010852378193103583,0.696393112770149,0.42943507983047846,72.00924555574768
2.51480355798558,2,Yaoyi,229.0,75.1953125,-12.41954489011111,0.4067396052000198,-0.0220662651230693,0.0835208699834895,1.091490505891089,0.92460691205,-99.3192509,0.01072961373390558,0.6985847881408044,0.3419017675077724,71.33282387242994
2.9805758894571803,2,Yaoyi,230.0,70.3125,-13.703976873666669,0.4413654134517,-0.017378777152767,0.02658801462489,0.863926092043,0.8137756976499999,-22.753294779,0.00790603117235148,0.6474190186225477,0.36474347099398147,70.84509661486945
3.015727285967983,2,Yaoyi,231.0,67.3828125,-17.458636889,0.4475488385891089,-0.0429591507452415,0.0566324198557485,0.588707371229703,0.4677720416499999,-40.71359576,0.006211881635419019,0.49785090491662676,0.3738576874357772,69.08930999119411
2.6792500058091955,2,Yaoyi,232.0,102.9211956521739,-19.496722624444445,0.33955368391,-0.008363798794304,0.06647670823806,0.503520005531,0.7070149054,-79.76273836,0.026762652105164944,0.41666309089978093,0.28225239179822353,67.79322926728646
2.9752432732181053,2,Yaoyi,233.0,87.890625,-18.121084472222226,0.2500477633216138,-0.0268607619701089,0.049422507700495,0.5079751154554456,0.6659759493499999,-10.18205583,0.01807092839394624,0.47146208807383255,0.2054102502668375,67.66224562689962
2.992902732651857,2,Yaoyi,234.0,82.54076086956522,-18.35311278888889,0.2045233985577,-0.050508621931387,0.020234839405099,0.4142199333885999,0.7738899202,-30.754425295,0.01497726402215653,0.46221916394529144,0.16719699686885459,67.18375122273747
2.14307925133488,2,Yaoyi,235.0,83.984375,-17.948204529,0.2349205746374257,-0.0050571555016633,0.0603580398972277,0.4933099660455445,0.74562865965,-24.67561282,0.01581206234470296,0.4783488173381969,0.193693335824786,67.60597374155071
2.0033525630848263,2,Yaoyi,236.0,91.71195652173913,-18.265048852222225,0.16859930536469,-0.0526332768105829,0.04164990420084,0.382496726983,1.1544474495,-42.8083345847,0.020280688659510316,0.4657272197583239,0.1413823172060991,67.12539894793889
1.9675591465702205,2,Yaoyi,237.0,79.4836956521739,-18.73588599888889,0.1234864478458415,0.0194791041324851,0.0485438274965346,0.3999694784686138,0.92281609705,-48.30133492499999,0.013209455809705263,0.4469712675277571,0.10085760087817554,66.4347051335526
2.003683785475684,2,Yaoyi,238.0,95.703125,-18.13461500777778,0.05873004505023,-0.02369753237547,0.03742223865275,0.3259015200446,0.4872288028,-17.033424715,0.0225886604924328,0.4709230947502798,0.049050112614053926,66.49525124776444
1.8982940134415291,2,Yaoyi,239.0,78.46467391304348,-18.09079751888889,0.102084905666693,-0.0066673393912306,0.0466797177809504,0.4089850695233663,0.7902327353,-32.87403306,0.012620186405554849,0.4726685787977507,0.0823251622064456,66.58302797133567
1.897178447145908,2,Yaoyi,240.0,93.75,-18.048151455555555,0.1102823911987029,-0.0316238969620891,0.0294356593633772,0.3761409839878217,0.4811742597,36.22002827,0.02145922746781116,0.47436739872384304,0.08745397168433187,66.821225107517
1.859109583890016,2,Yaoyi,241.0,87.63586956521739,-19.067572639,0.080024421490226,-0.00965427271784,0.0336354472999,0.4864629888949,0.76555750995,-59.616479485,0.017923611042908634,0.4337584213844907,0.06084120894876004,66.05030294906214
2.0640203850558,2,Yaoyi,242.0,89.84375,-18.65038879625,0.0395420490400693,-0.0257516725203168,0.0395651326064356,0.4042410584658416,0.6374170212,-51.44970484,0.019200361418567877,0.4503770766485855,0.03879862575461415,66.0989211541913
1.6928952869890408,2,Yaoyi,243.0,81.52173913043478,-18.77854740777778,-0.000820450646468,-0.03389254316441,0.02187315321279,0.2660731864514,0.5368729979,-46.2305766,0.014387994618006108,0.4452718363064241,0.02062943742201308,65.79605742741332
1.6318657021884695,2,Yaoyi,244.0,77.44565217391305,-17.907419428,0.0619619647870693,-0.0087096712232673,0.0493179004354653,0.2732322943068316,0.6345244780999999,-2.456305465,0.012030917001404427,0.47997350521911386,0.054277871904821744,66.43452337789603
1.6108383430322533,2,Yaoyi,245.0,99.609375,-19.669242026666662,0.0578547625456239,-0.01901446117746,0.03750300039212,0.33213684859,1.128328598,-60.427059425,0.024847526541676077,0.4097907239044541,0.04730426286044149,65.79287332057051
1.5612348192490255,2,Yaoyi,246.0,136.54891304347825,-15.586614988888888,0.0217211583679722,-0.0100859136600998,0.0213708090192178,0.2205973513668316,2.7544324335,-165.6437965,0.046208542442128825,0.5724235115633928,0.01357131842043052,67.90182353496674
1.5549926467791253,2,Yaoyi,247.0,140.625,-18.067544751,-0.030791630218362,-0.0133683572196,-0.0046422331460699,0.2433940105309,2.7822206025,-0.945808299999996,0.04856562005873052,0.4735948604364024,0.015103321036353003,66.77527729470226
1.566713074493559,2,Yaoyi,248.0,150.81521739130434,-16.67751056111111,0.0679458589254811,0.0155394184780792,0.0379022713171683,0.2707183689840594,2.626620224,-178.25373205,0.054458314100234724,0.5289673284945954,0.05399426483831592,67.86872834264636
1.5696472622135846,2,Yaoyi,249.0,134.765625,-16.36954267,0.4825644309069307,0.0274994005780792,0.0446587174168811,0.6296322782069307,3.6526600135,-164.22875855,0.0451773209848656,0.5412353304887492,0.401450678550827,70.60997581396892
1.5510844383841829,2,Yaoyi,250.0,84.5788043478261,-18.04609836,0.421548307167,0.17683297985698,0.0209362947845999,0.547273368239,4.1058131035,9.888020949999998,0.016155802830457373,0.4744491844589691,0.37767063238456294,69.03787132919328
1.55205828385859,2,Yaoyi,251.0,125.0,-14.478487128,0.3675496371465346,0.2867471485789108,0.0435203629531881,0.5848815897841584,4.209366847,-176.31798965000002,0.0395301558617574,0.6165661485055591,0.38672758018664666,71.28321754079502
1.622133258770612,2,Yaoyi,252.0,99.8641304347826,-16.388939856666667,0.321930881259,0.07355870034136,0.01086936578184,0.462435275064,4.424533306,-173.6183651,0.024994843892713677,0.5404626371931947,0.2688233856040387,69.13603560900492
2.0936978026096704,2,Yaoyi,253.0,124.32065217391305,-14.630152274444445,0.4582339210742574,-0.0772065649187029,0.0624121667414554,0.569347228350495,5.124824369000001,-176.63158245,0.03913730959232378,0.6105245176319276,0.38729716742887943,71.20741774286064
2.1770978312099194,2,Yaoyi,254.0,63.4765625,-15.159660379000002,0.378098760093,-0.23604328340763,0.06274644194179,0.6909534467570001,5.1340730765,0.8193389500000023,0.00395301558617574,0.5894313885424909,0.37126169985502366,70.1223305730736
2.090132114239945,2,Yaoyi,255.0,63.17934782608695,-17.058095672222223,0.4120374061960395,-0.2446277475611287,0.0627902152891089,0.5485457145386139,5.01767147,-176.30372935,0.003781145343298532,0.5138065957142683,0.39963202508870654,69.43835825614684
2.017970615935553,2,Yaoyi,256.0,86.9140625,-17.95202601777778,0.384206325212,-0.19228528912183,0.05214076217831,0.48866676924,4.9908150535,-176.30765585,0.017506211881635418,0.47819658707881085,0.3564286770670223,68.93991269911461
2.003832220014325,2,Yaoyi,257.0,86.29261363636364,-19.320919282,0.2938175577891089,-0.0986979528586792,0.056223410013594,0.3459944441871287,4.668224148,-173.4811771,0.017146846828346718,0.4236662747314008,0.25564883968007945,67.47212295078438
2.1292754513852343,2,Yaoyi,258.0,87.5,-18.793211424444443,0.213201325129,-0.0243410042016295,0.0513985867931999,0.258092941057,1.874093727,-167.87616085,0.01784504178902191,0.4446876903908876,0.17491394163826776,67.09246465357724
2.1558528705482862,2,Yaoyi,259.0,71.875,-17.216508144444443,0.1575224833713861,0.0361209257504524,0.0586690919076831,0.2085377338673267,1.8138261965,-161.17115295000002,0.008809577592048791,0.5074961829043176,0.1332213229995404,67.33191633068911
1.9488872687961427,2,Yaoyi,260.0,93.75,-17.01781638,0.1155839576074257,0.0155113427980495,0.0612715544367703,0.1488305380359406,2.5840114295000003,-169.66971875000002,0.02145922746781116,0.5154111345365544,0.09882860135391679,67.4047469746262
2.546730293732224,2,Yaoyi,261.0,70.3125,-17.202453806666668,-0.29766718382092,0.027169653612489,0.0564321682345489,0.3264182000105,2.755630106,-170.5342464,0.00790603117235148,0.5080560420612648,0.24638656544222065,68.22588565171998
3.089258093139965,2,Yaoyi,262.0,82.03125,-22.11902872111111,-0.3503799225,0.03187935190062,0.0460059738027524,0.3724896261732673,4.394540593,-173.3545713,0.01468262932008132,0.312202667096762,0.2897150805284794,66.35780523579061
3.291554775057642,2,Yaoyi,263.0,117.1875,-22.000642045555555,-0.1941850176919,0.016659897069976,0.055649413170282,0.223962625507,5.00124608,-175.3115907,0.035012423763270836,0.31691863916306034,0.15953891392210695,65.779583456599
3.293992336847125,2,Yaoyi,264.0,111.328125,-22.003717372222223,-0.0943508403805445,0.0117489088293663,0.0475365780250297,0.18707990379,5.24030556,-174.24372175000002,0.03162412468940592,0.31679613251620425,0.07706431238699049,65.05055058307849
2.7861228524929578,2,Yaoyi,265.0,96.6796875,-23.545693762,0.1771743724666,0.00223298734034,0.06096032219984,0.3548447897338,5.2268235155,-173.90557174999998,0.023153377004743618,0.25537099706951244,0.14644230144488052,64.69905791648807
1.9829200523508823,2,Yaoyi,266.0,107.8125,-23.077238014444443,0.2480750021326732,0.0022128400448461,0.062749759498795,0.3601553409029703,4.3152952235,-174.10844459999998,0.029591145245086967,0.27403208548509334,0.20506889501039818,65.52075909080604
1.9620747837045085,2,Yaoyi,267.0,106.25,-22.480430445555555,0.272309245391,-0.0028789972248904,0.064920647209,0.294177299289,4.691916806,-173.7167246,0.028687598825389654,0.29780611081883657,0.22565459629664011,65.95266207670696
2.337848259963301,2,Yaoyi,268.0,76.171875,-22.875742854444443,0.2110010410178217,-0.0072187727128376,0.0656286853399356,0.2328749167455445,4.5175223205,-173.3517639,0.0112943302462164,0.28205871129914784,0.17528501342029099,65.01287124787643
2.1702550137307712,2,Yaoyi,269.0,111.328125,-21.389571517,0.0902806266823,-0.0036886699475891,0.07158791146909,0.1539197278761,4.0801438,-173.98660660000002,0.03162412468940592,0.34126083417514863,0.08474586885252763,65.40557945471012
1.9179728966141247,2,Yaoyi,270.0,85.9375,-21.60453805,-0.0252169844525079,0.0061733053895019,0.0660658660225386,0.0924069891818811,1.08016650535,-35.744842864999995,0.0169414953693246,0.33269757179735465,0.04684495938399154,64.70596044402669
1.9314226728493589,2,Yaoyi,271.0,93.75,-24.09125155,0.0335104877043158,-0.0016409295290574,0.0705405548981009,0.0903082125977227,0.55268547255,-54.185730385,0.02145922746781116,0.23363852357377557,0.052944982892662674,63.65640669538283
1.9698409801666663,2,Yaoyi,272.0,109.375,-24.138365952222223,0.021113939771728,0.003300839116706,0.06980948667362,0.1072004346477,0.5310401052,-55.444325965,0.030494691664784277,0.23176170590187392,0.04857632076325683,63.779644870224224
1.92240710296459,2,Yaoyi,273.0,137.6953125,-25.12646808222222,-0.4987366937922772,0.0098143900954901,0.0679023027786087,0.5257713286642574,0.5324387558999999,-48.781827425,0.046871470521798055,0.19240033333302312,0.4168761242795914,66.58124240466897
1.9543632732796177,2,Yaoyi,274.0,149.4140625,-27.83747403555556,-0.619693051995,0.013487364137367,0.05295520330828,0.629684229995,0.5222258747499999,-51.519138455,0.0536480686695279,0.08440652163511062,0.5184127001387886,66.2331412341222
2.00948364464866,2,Yaoyi,275.0,165.625,-25.360596906,-0.4710717793831683,0.0130790693395376,0.0457471389871811,0.475225810810891,0.5110397687999999,-52.43692745,0.06302236277388751,0.1830737348144833,0.3912362047158746,66.58722171097855
1.8549783003724027,2,Yaoyi,276.0,1785.9375,-25.454063491111118,-0.365124008924,0.010665318792345,0.043593448519918,0.368758698291,0.5267313267,-55.94244013,1.0,0.17935046272792596,0.30088099244251215,84.5592534922752
1.9677705972856927,2,Yaoyi,277.0,165.52734375,-29.9563601,-0.2819102643158416,0.0076471941508551,0.041722199408891,0.286038987670297,0.54459475435,-51.53158715,0.06296589112265642,0.0,0.23004212095640822,63.099654790104395
1.9616058004021075,2,Yaoyi,278.0,161.1328125,-29.12374733222222,-0.2185590009219999,0.0077834991885109,0.041314309108396,0.223642980454,0.4927355669,-50.742327455,0.060424666817257736,0.03316740280489366,0.17654793733256785,63.018885668664424
1.9607897598948976,2,Yaoyi,279.0,159.375,-29.56015225,-0.1693834295168316,0.0054026615434801,0.0427950245372178,0.1757300716623762,0.50634375155,-51.80244472,0.05940817709509826,0.015783069710165864,0.1356675649580681,62.4629008980885
1.959448786324796,2,Yaoyi,280.0,157.8125,-28.62324752888889,-0.127795630378848,0.008889625743404,0.0451997780626799,0.1689065773203,0.5023417818,-52.04305169,0.058504630675400945,0.05310497669681493,0.10234395078050397,62.62610394011383
1.9119372585493948,2,Yaoyi,281.0,150.87890625,-28.63064134333333,-0.1040047052793366,0.0026315509829029,0.0450493866904257,0.1447067498732673,0.5573736059000001,-51.32197445,0.05449514343799413,0.052810441672330566,0.08311547041074496,62.388551932113806
1.919661687811982,2,Yaoyi,282.0,164.0625,-28.611630683,-0.0881510116649999,-0.0001670125428396,0.0408306784904168,0.1232806370083168,0.4999513735,-55.94499614,0.0621188163541902,0.05356773756456798,0.06923283757989092,62.43905187849775
1.9228321452282449,2,Yaoyi,283.0,182.8125,-28.40145013777778,-0.06273434778839,0.0032322779547225,0.04574368606251,0.0864413469281999,0.463768695,-53.34476683,0.07296137339055794,0.06194034854883547,0.052598565393944474,62.62330017354874
1.929602330592692,2,Yaoyi,284.0,184.5703125,-28.37922409444444,-0.0543408688084158,0.0052374230653386,0.0430517462508415,0.1277153658034653,0.51515323075,-56.07614927,0.07397786311271741,0.06282573027792357,0.04559723009190372,62.59824386632466
2.457554727319713,2,Yaoyi,285.0,295.3125,-28.890687275,-0.042728168137272,0.0022400635652459,0.0448069036425159,0.0763695927039,0.58440098865,-51.339308525,0.1380167156087644,0.0424514266570044,0.03911898191801945,63.5827032874035
3.2394410616735154,2,Yaoyi,286.0,287.109375,-27.97482811,-0.0368398456206653,0.0006285188751584,0.0420864172610891,0.0663861787981188,2.7398083476,-24.4149294085,0.13327309690535352,0.07893497701040936,0.03396908420429917,63.88443433586637
3.2611757090131928,2,Yaoyi,287.0,145.01953125,-27.082586224444444,-0.030090747319531,-0.002121935922248,0.04564464592298,0.06361423336272,5.641008877,-3.8468731675,0.051106844364129204,0.11447772528774205,0.03292164925867175,62.65924278480486
3.22889222301089,2,Yaoyi,288.0,185.9375,-28.660177911,-0.0263023364970396,-0.000236857824694,0.0454033516554178,0.0790726841897029,5.5635263425,-3.553258199,0.07476846622995256,0.05163384280766369,0.031005254396702316,62.36301747346464
3.1916418910757614,2,Yaoyi,289.0,175.0,-27.791430875555555,-0.127803428484854,-0.004034255375725,0.04026828315726,0.16830397847657,5.6643143805000005,-3.948605593,0.06844364129207138,0.08624066602158952,0.10081511436623715,63.2102817330304
2.677025474134444,2,Yaoyi,290.0,158.203125,-27.687388143333333,-0.7519163148207921,0.0086842568290114,0.0386472181728415,0.7666249951108911,6.6386534825000005,-2.275895444,0.05873051728032528,0.09038524239860843,0.6303857431680657,67.30231919973433
2.436049511912744,2,Yaoyi,291.0,156.73828125,-27.017235658,-0.658045066980198,0.0078908956788653,0.0322924236730801,0.6618766792237624,6.7071396575,-2.517650111,0.05788344251185905,0.11708098654516409,0.5498894709406945,66.96175645630471
2.3678823570002083,2,Yaoyi,292.0,151.5625,-24.816194341111117,-0.5187103487329999,0.0037206173069889,0.041756335223606,0.5237764846880001,6.780073586,-2.937012223,0.0548904449966117,0.20476018961853212,0.43139508752401606,67.00609187554674
2.360562585048254,2,Yaoyi,293.0,124.51171875,-22.50699726222222,-0.5509024885663366,0.0065534395367762,0.0416239661858316,0.5557351800079208,6.794332977,-2.702801816,0.039247797605601986,0.2967478129597023,0.4588703827450426,68.01689276958881
2.577272603101028,2,Yaoyi,294.0,82.8125,-20.130569488,-0.489428987439,-0.003569745620933,0.054424210988731,0.496205000534,6.6033496545,-1.1274977394,0.015134402529929975,0.39141359310949914,0.40748526985510447,68.25953332675343
2.1483929972527696,2,Yaoyi,295.0,99.609375,-24.728776466666663,-0.3918129141336633,0.000480316924803,0.069449082361597,0.4058467331613861,6.501424307,-2.539812117,0.024847526541676077,0.20824250933095417,0.32659257231972944,65.6086012213628
1.919310115759644,2,Yaoyi,296.0,136.23046875,-23.302395912222224,-0.312504787726,0.001775508860514,0.073631063107668,0.365747927438,6.287194825,-2.2026334475,0.04602439575333183,0.26506284674734215,0.2608317208673243,66.18789584297333
2.179450527139762,2,Yaoyi,297.0,100.0,-23.16018329222222,-0.2365428263588118,-0.0036270948048029,0.0718087870302871,0.3866424234990099,6.532479928,-0.9666624767,0.025073413146600408,0.2707279331284559,0.19765138473132476,65.33141453832408
2.0509811772202218,2,Yaoyi,298.0,149.4140625,-23.125301962,-0.199291017268,0.007025619640449,0.08209772612246,0.255734591311,6.047872311,-3.168616817,0.0536480686695279,0.27211744236326946,0.17063317131522177,65.70343605227157
2.0448863548146816,2,Yaoyi,299.0,89.0625,-16.900953056666665,-0.1645503079467326,-0.0074272968689189,0.0915942653631683,0.2155811786287128,5.786639173999999,-2.6180071270000003,0.018748588208719223,0.5200664233672316,0.14737472979490898,67.79476668294043
2.1982038799504044,2,Yaoyi,300.0,70.3125,-17.07896136,-0.1396573120807999,0.0017184268797592,0.08562968995565,0.186482938229,5.5454259385,-2.64224223215,0.00790603117235148,0.5129754041951017,0.12628813013146167,67.32413051483994
2.1856290466361536,2,Yaoyi,301.0,150.87890625,-20.201923408888888,-0.0783601102063663,0.0082421255486871,0.0956743598173306,0.1756619758171287,5.1293620055,-5.470863204,0.05449514343799413,0.38857118625793624,0.09215999795797143,66.49003708751889
2.168394358986637,2,Yaoyi,302.0,71.875,-18.78510224,0.0001571185919207,0.0011436361390138,0.1025807146360495,0.1867436354229703,4.848281273,-8.2433509035,0.008809577592048791,0.4450107224140523,0.07388679502683705,66.1074145810243
2.1636233553513677,2,Yaoyi,303.0,78.125,-18.807866507777774,0.047183847238065,-0.016580880357899,0.1031478486444899,0.2730859867811,4.6748309375,-7.296160772499999,0.012423763270838039,0.4441039003376157,0.08419391200724692,66.25127336552612
2.1347918833449366,2,Yaoyi,304.0,101.07421875,-18.77979389777778,0.0884161813540594,0.0214836099848316,0.0826266743945445,0.3242946568174257,4.3382346175,-1.1116140385,0.02569460131014231,0.44522218196827046,0.09127369670091187,66.58674778342939
1.7868307951012148,2,Yaoyi,305.0,83.49609375,-19.267914396666665,0.1301452940876,0.003854054786172,0.1067476460354,0.3089452530802,4.229639816,0.0159865295000001,0.01552970408854755,0.425777741730844,0.13017279191556208,66.46130931786557
1.7246111970736564,2,Yaoyi,306.0,78.125,-17.932125066,0.1370624255835643,0.0722709153466485,0.1236784007931782,0.3109453787254455,3.9620705555,-0.869925772,0.012423763270838039,0.47898934802286414,0.1557472410583308,67.24232537015777
1.728114227733614,2,Yaoyi,307.0,74.70703125,-19.49383637555556,0.1610346703821999,0.20521898259905,0.116719183548572,0.4138310989739999,1.13545960945,-89.97713962,0.01044725547775017,0.416778065571318,0.23063829763719146,67.05538827750836
1.718841553112589,2,Yaoyi,308.0,71.875,-18.13413394333333,0.1890953771233663,0.2695429530880792,0.1541959455748514,0.494782539070297,1.0996079235,-140.29030634999998,0.008809577592048791,0.4709422581102733,0.2972044460792347,68.20513421779813
1.6849729780363198,2,Yaoyi,309.0,77.63671875,-17.69511610111111,0.2318583726901,0.30188041917937,0.16165060365711,0.596884498469,0.7665281706,-55.918666585,0.01214140501468263,0.48843067790760925,0.3399634291731285,68.82370366856999
1.6609011337477664,2,Yaoyi,310.0,87.890625,-18.939896324,0.6467338294673267,0.1237856754909406,0.1468508469567455,0.8152744631029704,2.036510061,-28.352050175,0.01807092839394624,0.43884444928621485,0.5633797445660818,70.13458991584216
1.728022666836147,2,Yaoyi,311.0,78.125,-18.601973106666662,0.985233297139,0.01770191109686,0.1767414837222199,1.036939770405,2.2922717945,-27.375236745,0.012423763270838039,0.45230573152950104,0.8427255145628453,72.41794816027354
1.7960492435335995,2,Yaoyi,312.0,81.25,-18.790910224444445,0.64654386009901,-0.1088918634297188,0.1059450462125742,0.6965264912742575,2.4676390455000003,-33.29605669,0.014230856110232663,0.44477935944796715,0.5543987914132975,70.05715976688664
1.676347225941324,2,Yaoyi,313.0,82.03125,-19.858528007777775,0.2922301762306931,-0.2457408193336633,0.1422610721313792,0.4673495307425742,2.864337979,-41.8187701,0.01468262932008132,0.4022504547375665,0.33475679072948095,67.79871236908828
1.6177597518128326,2,Yaoyi,314.0,76.171875,-17.688100142,0.1517107485370999,-0.346956476363,0.1451155782644199,0.458957047703,2.2383101975,-27.10806821,0.0112943302462164,0.4887101609409069,0.33310253204797174,68.75522879259898
1.7316481813356075,2,Yaoyi,315.0,84.375,-17.532224327777776,0.1305462450357255,-0.3434832836079208,0.1286463631025772,0.4548458006999999,2.7955762095,-33.170928085,0.016037948949627286,0.49491952514708865,0.3192366001847681,68.81368608223576
1.6684792872132594,2,Yaoyi,316.0,76.5625,-14.77904349111111,0.1155087569210828,-0.3167576737835,0.065062740396372,0.397194330929,3.045826039,-34.325938625,0.011520216851140727,0.6045933871611875,0.27992553350034255,69.7249292509598
1.6875048302360052,2,Yaoyi,317.0,68.84765625,-12.952012926,0.0693336707763465,-0.2872432473844554,0.0778903370825693,0.3715875057138613,2.7182152655,-32.20019534,0.00705895640388525,0.6773737492154791,0.2475852433142793,70.2503460651777
1.707956476502256,2,Yaoyi,318.0,70.3125,-15.755387831111111,0.05758427144676,-0.23262910112835,0.077767208038603,0.379911111227,2.8810510845,-38.47233542,0.00790603117235148,0.565700390015003,0.20169299907726682,68.5600692962452
1.7378255954158277,2,Yaoyi,319.0,67.1875,-16.877070564444445,0.0191551539137089,-0.2166510614916831,0.0614331054826237,0.2892341980476238,2.4886605965,-25.005917005,0.006098938332956856,0.5210177902813294,0.1794915147499399,67.81012436803461
1.8213439527827189,2,Yaoyi,320.0,70.3125,-17.929572914444446,0.020705826776777,-0.21177674678026,0.07485245289803,0.3210458083286,2.3695825865,-29.842939315,0.00790603117235148,0.4790910138175026,0.17911706040920303,67.34014927253068
1.7955520989520166,2,Yaoyi,321.0,73.4375,-17.327850098,0.0541398357702178,-0.1526767593463069,0.0633534758328613,0.2914787362148515,2.4018610565,-15.222742750000002,0.009713124011746104,0.5030608396504336,0.13494036967767173,67.3105155134615
1.8049183375944635,2,Yaoyi,322.0,74.70703125,-17.57166401,0.0432782547272899,-0.07134596793977,0.06977728021003,0.2942776996642,2.1475862785,-13.62452602,0.01044725547775017,0.49334843246464904,0.07918193996601909,66.76258181885895
1.79294005519336,2,Yaoyi,323.0,68.75,-18.032449433333333,0.0480821199873069,0.0373944203741772,0.0290916288787297,0.2117937752121782,2.3090717845,-8.353256979500001,0.007002484752654168,0.47499289393127997,0.04386591040399751,66.19089170546042
2.637656349602761,2,Yaoyi,324.0,82.03125,-17.387730335999997,0.0387313326820594,0.1407711391674257,0.0464272917452376,0.3026684962565346,2.409811969,-14.6951129645,0.01468262932008132,0.5006754907215436,0.1171995396967712,67.23935479263432
3.1651401152890104,2,Yaoyi,325.0,83.55978260869566,-18.111509992222224,0.03026456037256,0.2292900144572099,0.035822610016458,0.3953893650306,2.396284722,-8.772939912,0.015566533426306952,0.47184349062625197,0.1863631286012602,67.46435758485124
3.465277651550506,2,Yaoyi,326.0,90.8203125,-18.02704432333333,0.0288650420357792,0.2250304041153465,0.0414256355807821,0.2894985479910891,2.294866529,-12.85599025,0.0197650779308787,0.47520820826167787,0.18344410171571118,67.5653528714834
3.484632027378068,2,Yaoyi,327.0,71.33152173913044,-17.140921763,-0.0047964490723631,0.2005271411277999,0.03347755494609,0.3788288610488999,2.4803251515,-13.094198665,0.008495300576501903,0.510507191210884,0.16011348362293465,67.57690017504412
3.452842032912669,2,Yaoyi,328.0,70.3125,-17.089875097777778,-0.0230629939527178,0.1830787152416039,0.0469787478636049,0.3258306679439604,2.4567321465000003,-10.0581943982,0.00790603117235148,0.5125406518696616,0.14903518684683176,67.50088994065763
3.840482174480528,2,Yaoyi,329.0,70.3125,-17.65052862111111,0.016080501953011,0.14298745524871,0.03120786462942,0.3406901716214,2.554544954,-14.736690325,0.00790603117235148,0.4902068348036441,0.11208961388028296,66.93731955213302
4.190242954223343,2,Yaoyi,330.0,86.61684782608695,-18.24625224555556,0.0199706006018059,0.1415682932267722,0.0690175752180297,0.3913528970596039,2.0562211255,5.504580724,0.017334341638758213,0.46647598875251356,0.1219493265368288,66.91999331009995
4.2282406833671,2,Yaoyi,331.0,83.0078125,-17.469745178,0.010984628661573,0.1210945333299356,0.022048891279278,0.3837338319584,0.92621504605,-61.4512366925,0.015247345832392139,0.49740840257941243,0.09184499469954702,67.00860770519716
4.238731911236348,2,Yaoyi,332.0,72.35054347826087,-17.804881995555558,-0.0173457923704059,0.1566213811232673,-0.0009731156250197,0.2879784253958415,2.1490016755,-167.78595815,0.009084569980652324,0.48405811748555955,0.12094377860288894,66.95793903826288
4.446458839576118,2,Yaoyi,333.0,65.4296875,-18.91962913333333,-0.02363444347659,0.33035117475003,0.0068984397711999,0.6580392043019999,2.257574245,-0.7759875499999964,0.0050824486107973795,0.43965179947657895,0.2695599237580112,67.53394995599899
4.481517470234313,2,Yaoyi,334.0,71.33152173913044,-17.411555613333334,0.0892170802008415,0.5348415893604951,-0.0750832856907425,0.723644832659802,2.4245949810000003,14.353354149999989,0.008495300576501903,0.49972640298131815,0.45450123987705215,69.80263276632228
4.404886109078038,2,Yaoyi,335.0,64.19836956521739,-16.298159661,0.5833974701415842,0.5465250178752475,-0.0031590653614059,1.040464343141584,2.8277219755000003,-155.02613675,0.004370414747448954,0.5440788960747628,0.6701299600878359,71.97739472854882
4.563140920560708,2,Yaoyi,336.0,76.171875,-15.555685485555555,0.5671745498140001,0.497478624561,-0.0489590933336999,0.857183954705,2.788689531,-146.2604834,0.0112943302462164,0.5736555984773971,0.6330065072418635,72.173805844588
4.614951024968529,2,Yaoyi,337.0,114.1304347826087,-15.686569567777775,0.4212104889841584,0.4122593744470792,-0.0326165388883267,0.7203151336099011,2.602723596,-161.53811615,0.03324461555081958,0.5684417881158297,0.4911942448551347,71.41574772724742
4.592838267178475,2,Yaoyi,338.0,91.796875,-15.89008023111111,0.311396885258,0.270628768997932,-0.044069669150917,0.553920141834,2.668607348,-168.9653318,0.020329794443189518,0.5603348740651561,0.3411295840838028,69.85965105031609
4.530758055099544,2,Yaoyi,339.0,137.5679347826087,-15.696072924,0.2188663332331683,0.0808490643880217,0.0078736869161782,0.4156547764712871,2.2425558465,-166.99348435,0.04679781184627925,0.5680632188024354,0.18586514029410553,69.23963598490765
4.579687750030097,2,Yaoyi,340.0,97.65625,-15.600723025555554,0.150507101303,-0.064086946816792,0.0047652000912299,0.3711790381808,2.1078193725,-176.79897315,0.02371809351705444,0.5718615132935867,0.12613833406058125,68.34580670234878
4.510937377057542,2,Yaoyi,341.0,118.20652173913044,-16.20806493,0.1079660105668316,-0.1091892001392455,0.0750759679850198,0.2457494663835643,2.353024284,-11.95064090000001,0.03560169316742126,0.5476678492464166,0.13236087078348122,68.34293502057328
4.38790671146289,2,Yaoyi,342.0,165.0390625,-15.132968841000002,0.05672325706415,-0.1362500638720299,0.07678637269658,0.2342907991367,2.5821198785000004,11.549791850000004,0.06268353286650101,0.5904946547168626,0.1284602182235524,69.3672882597208
4.228862996392389,2,Yaoyi,343.0,116.16847826086956,-15.79263364222222,0.0451863199048514,-0.0921176591914158,0.0091166602275415,0.553099482399406,2.7408977505000003,10.610956850000008,0.03442315435912042,0.564216690908137,0.07424656748493896,68.05303591795956
4.221524131471623,2,Yaoyi,344.0,115.14945652173913,-15.130178766666669,0.0565283294679465,-0.0888890409098712,0.0071389697848514,0.7798268306485149,2.7322908305,2.3855793000000034,0.033833884954969994,0.5906057982434221,0.07644981127811039,68.37554576824535
3.687586621672287,2,Yaoyi,345.0,90.8203125,-13.539246580444445,0.07356904899782,-0.1273178842879899,0.077401230788613,1.210914804325,2.543498863,-0.5339819499999976,0.0197650779308787,0.6539811039050639,0.12829410847235176,69.26942767325716
2.7019701822053737,2,Yaoyi,346.0,67.2554347826087,-11.246534073555557,0.088772330161294,-0.0428339237163366,0.0521081570077227,1.264590335961386,2.4238276545,10.875021849999996,0.006138222959900221,0.7453120589116256,0.08150654515104401,69.71856152734586
2.538378462579058,2,Yaoyi,347.0,81.0546875,-12.567348621444443,0.07246448657023,-0.07802789518497,0.0762167778877,0.4861197558173999,2.040143256,-164.96459425,0.0141179128077705,0.6926969780051481,0.09815757530962112,69.37998259469416
2.5021896860370623,2,Yaoyi,348.0,106.99728260869566,-12.353213183333333,0.0336816056026445,-0.1502395486778881,0.0502524012800722,0.328338702510099,1.7687905205,-167.76522975,0.029119729721766633,0.7012271334453406,0.12469156441201372,69.99465271107553
2.272008723704852,2,Yaoyi,349.0,115.234375,-16.345990481111112,0.03280670937095,-0.0427333885149,0.03716941089392,0.410651254084,2.285925745,-167.2800422,0.0338829907386492,0.5421735396611831,0.04211172802592793,67.52063611491461
2.1822956751522384,2,Yaoyi,350.0,84.5788043478261,-17.861979847,-0.0564149381651386,-0.0002397162993297,0.046042064441891,0.4140341218567326,2.5676842045,-171.72814005,0.016155802830457373,0.4817836058380787,0.048415052925993116,66.49183975007404
2.160728182202773,2,Yaoyi,351.0,212.97554347826087,-16.566105825555557,-0.0806385878043,-0.03112929303519,0.0439910065586775,0.1466953460591999,2.405691861,-172.2205434,0.0904037477534104,0.5334051726900496,0.06909642624710723,68.76170843732567
2.1787455115751437,2,Yaoyi,352.0,89.84375,-18.79897713555556,0.007900951008396,-0.0143140837838232,0.0584769500848217,0.1430781594895049,3.87797305,-176.0385818,0.019200361418567877,0.44445801139690644,0.03806224887664467,66.0220013561474
2.27843306932957,2,Yaoyi,353.0,70.3125,-19.143385537777775,0.06846697765538,-0.0300914283355899,0.04696206454144,0.1246504416135,3.5072241465,3.25776415,0.00790603117235148,0.4307383896856252,0.061670319034993815,65.82034385195448
2.3629909107832057,2,Yaoyi,354.0,101.5625,-20.180718099,0.0530494215907425,-0.0183987163405465,0.043865366048198,0.0977992302171287,3.3560844015,-176.20992515,0.025976959566297718,0.38941590673533716,0.04707487998057832,65.56912911199463
2.8683886298523458,2,Yaoyi,355.0,140.625,-21.84039211888889,0.0831728944317623,-0.0067694055063603,0.0499811136316455,0.1284927216859406,2.906650403,-175.7706589,0.04856562005873052,0.3233022475737189,0.06933799744732627,65.40564335163785
3.3474995727849,2,Yaoyi,356.0,139.6484375,-23.030253211111116,0.1943758952983,-0.002505958022804,0.041825127714876,0.226158939703,3.8351142775,-177.0409863,0.0480009035464197,0.2759037405427312,0.15624730301913128,65.52084138159422
2.7277007760343635,2,Yaoyi,357.0,109.03532608695652,-24.57201753,0.1053587329466336,-0.0073015350545346,0.0558367701153762,0.2451690007270297,4.8673051705,-175.6422259,0.03029826853006747,0.21448705300948406,0.08832718176956504,63.88642746087168
3.415231351201745,2,Yaoyi,358.0,112.3046875,-23.367716565,0.0452181679184,-0.024030716222102,0.0510785686753799,0.2523472770124,5.202382825,-177.54139064999998,0.032188841201716736,0.26246077711064725,0.04799415796322175,64.17725941306787
3.551434090496832,2,Yaoyi,359.0,106.99728260869566,-25.17259989,0.0524039689462277,0.0125031837286495,0.0622792902147722,0.1700079490550495,5.4197839640000005,-176.3640765,0.029119729721766633,0.19056265763322902,0.05656897119911759,63.32169825562702
3.552491054869924,2,Yaoyi,360.0,128.39673913043478,-24.41372748666667,0.258518446936,-0.031757208713539,0.036444929178765,0.2722699779899999,4.839949399,-176.94016090000002,0.04149438720892547,0.22079258882447392,0.2111453174287078,65.16856134950186
3.57380002329088,2,Yaoyi,361.0,119.140625,-24.53492724111111,0.2641372970178218,-0.0120434326470138,0.0600056611967861,0.2798601411237624,4.2002688915,-176.9963024,0.03614185678789248,0.21596455683759738,0.2181069566212165,65.05926747077875
3.560616913336258,2,Yaoyi,362.0,127.37771739130434,-24.646362077,0.245527600218,-0.017192723499434,0.066944608281076,0.2653100296939999,3.705724431,-175.172517,0.04090511780477504,0.21152551358548807,0.20436110750241765,64.9912973791407
3.5452760681657987,2,Yaoyi,363.0,108.3984375,-25.248950006666668,0.1299861613877821,-0.0191142928757463,0.0531143296635643,0.1795233632154455,0.4374070627,-35.09581679,0.02992997515247346,0.1875212256834852,0.10736623528516051,63.707784093532574
3.3882439874605472,2,Yaoyi,364.0,98.84510869565216,-25.252592536666665,-0.02798604661294,-0.003817315635354,0.067339032215681,0.0869093168453,0.346185757,-48.236786045,0.024405574488563255,0.18737612430573278,0.04858966601477833,63.125342309558285
3.445133965095857,2,Yaoyi,365.0,114.2578125,-24.58427121222222,-0.0551201482438079,0.0051805404389287,0.0711353846220495,0.1165969365596039,0.34508878745,-35.32939787,0.03331827422633838,0.21399892355743128,0.06323661677704083,63.74024550143227
3.6022417831237656,2,Yaoyi,366.0,141.64402173913044,-26.487220433,-0.5292152409732673,0.0233417038730961,0.065954815236891,0.551529715729703,0.3855600891,-40.760311125,0.04915488946288094,0.13819431694390366,0.4428765665307218,66.18444212483024
3.416348146058923,2,Yaoyi,367.0,151.83423913043478,-27.77192529222222,-0.567493657591,0.0263103347407385,0.046328273139258,0.57200680769,0.4340978913,-47.21951086,0.05504758350438515,0.08701767733392839,0.47382525654137014,65.93576585042581
3.1824693323914106,2,Yaoyi,368.0,141.6015625,-20.94690839,-0.4247319020673267,0.0218923929580069,0.0463623587053168,0.4296523520376237,0.3460391264,-43.86419606,0.049130336571041336,0.35889446508771383,0.35217240162154984,68.1067195254458
3.351299517450697,2,Yaoyi,369.0,507.4728260869565,-25.652364964444445,-0.319863669421,0.0205423927146278,0.0420247458104409,0.325782958419,0.38499759385,-41.570201345,0.260702605552882,0.17145105847016454,0.2627133503861245,69.3731716157886
3.470584475364009,2,Yaoyi,370.0,159.1796875,-26.593723084,-0.2402273584821782,0.0156321789841386,0.0400987518247128,0.246722633120792,0.38302539385,-40.25823144,0.0592952337926361,0.1339517488952129,0.19493310478436857,64.35279050087023
3.927032751438164,2,Yaoyi,371.0,151.83423913043478,-27.07844606333333,-0.181171865582,0.0090833538660331,0.040674652951972,0.191468414201,0.4092880865,-46.143348475,0.05504758350438515,0.11464264996409064,0.1451776088503689,63.63808434045974
3.993594243044233,2,Yaoyi,372.0,148.4375,-27.812477926666663,-0.1382287696235643,0.008239256215395,0.0417366495565643,0.1588284895118811,0.3675505358499999,-35.38515141,0.05308335215721708,0.08540224983453004,0.10985885120462179,62.96536485079568
3.564120406980521,2,Yaoyi,373.0,165.08152173913044,-27.567765181111117,-0.1042430055573,0.0091973449697847,0.03691904480958,0.1201099247546,0.2846649653,-34.26724418,0.06270808575834062,0.09515046234992888,0.08105913753270445,63.044440363627594
2.8296680593921866,2,Yaoyi,374.0,149.4140625,-28.001934268000003,-0.07846417061,0.0056656169105821,0.0426627037841237,0.116695569220891,0.3155869821,-33.9302374,0.0536480686695279,0.07785519431229067,0.06268177477001183,62.50867790329814
2.8704792803512493,2,Yaoyi,375.0,164.0625,-26.758819832222223,-0.05933330171578,0.0078334892285748,0.03801574857921,0.1549485066162,0.3401312813,-44.15747574,0.0621188163541902,0.12737506575752888,0.04677438080202041,63.14507216259032
2.9115220815081515,2,Yaoyi,376.0,156.92934782608697,-26.630659026666667,-0.046114901517697,0.0058619053347009,0.0400537919439564,0.1047263662316831,0.32449596175,-43.1466102,0.05799393052513726,0.13248039349950663,0.03861161555631217,63.05853625694732
2.997141313768026,2,Yaoyi,377.0,163.0859375,-27.67630345222222,-0.0343402945693188,0.0039184316042574,0.0428156866307326,0.0692338416690099,0.336844795,-39.81591833,0.06155409984187938,0.09082680470617588,0.03318990690051535,62.58652290851582
3.604671233583445,2,Yaoyi,378.0,158.9673913043478,-27.55208188666667,-0.030368576834334,0.0023566387733438,0.0361435052094028,0.0614369896145,0.3188283923,-37.177588,0.05917246933343809,0.09577521153019312,0.026551235481174957,62.54516180888048
3.710212862443448,2,Yaoyi,379.0,161.1328125,-27.567169181,-0.0238789183276435,0.0034587821989306,0.0403989976640891,0.0594399405828415,0.3097335605,-45.76111606,0.060424666817257736,0.0951742042099173,0.026370598347470013,62.561548573643925
3.6638915316071934,2,Yaoyi,380.0,154.8913043478261,-27.828934002222223,-0.017415771502057,0.0017339318677329,0.041284827447307,0.049631320365,0.3376353708,-41.192588965,0.05681539171683641,0.08474671666513635,0.024475863001504655,62.3490753383304
3.508143327885749,2,Yaoyi,381.0,164.0625,-27.858496232222222,-0.0145889343305316,0.0028792605313079,0.0396691262076732,0.0485187954452574,0.33057758625,-45.305031845,0.0621188163541902,0.0835690955330009,0.022356618045081458,62.42405841784047
3.3714645982118427,2,Yaoyi,382.0,162.02445652173913,-27.044781227,-0.0131649071414589,0.004562664599949,0.03852006508078,0.04709795898549,0.3041276641,-36.08148758,0.06094027754588935,0.11598369976567904,0.021156836236328715,62.77986463799657
3.337509313206278,2,Yaoyi,383.0,414.7418478260869,-24.0682416325,-0.0092381141113475,0.0034331051062284,0.0395278609510099,0.0456805100253366,0.2783378437,-49.84079569,0.20707908977519368,0.23455513118750063,0.020964681358703472,67.12396082062351
3.271260768770674,2,Yaoyi,384.0,851.5625,-24.26018914777778,-0.0102878367111209,0.0028962607640279,0.03764801718613,0.04307022449549,0.3372985918,-38.51749961,0.45967924102100743,0.2269088389337699,0.019593672743759956,72.07324026957546
3.270019774776577,2,Yaoyi,385.0,297.55434782608694,-24.20770884888889,-0.0090220382804346,0.0034606036647376,0.0405131052095495,0.0472184042355841,0.3526193872499999,-40.28179015,0.1393131082978953,0.22899940886006923,0.021744697913486214,65.70821265558662
3.373052124024854,2,Yaoyi,386.0,550.78125,-19.86732885,-0.007141553253696,0.002954999699904,0.037459830397792,0.04636596627355,0.35426344105,-37.70816895,0.2857465552292749,0.4018998702998741,0.01883482852150553,70.68840817635603
3.441919891357462,2,Yaoyi,387.0,105.97826086956522,-27.94306844444445,-0.0085165577944725,0.0018680312604643,0.0385124369543861,0.0455113424249504,0.3178474655,-39.13249393,0.028530460317616208,0.08020013370893217,0.019894352182416083,61.69216562831884
3.4321025898577755,2,Yaoyi,388.0,150.390625,-28.345289011111117,-0.0057607145369252,0.002241383578095,0.0394732560610693,0.0445346517775247,0.3329710244,-37.761909345,0.05421278518183872,0.06417754545743128,0.020294155142651545,62.01673949026716
3.129950114965116,2,Yaoyi,389.0,163.04347826086956,-28.77841474888889,-0.0047621664817754,0.001931590780436,0.03937547764774,0.04390958842814,0.3547283173,-41.070532775,0.061529546950039773,0.046923839573982475,0.020084598836889584,61.954353804583704
2.847346462232921,2,Yaoyi,390.0,161.1328125,-28.866143619,-0.0043056542792921,0.0033268518630475,0.0399115135591683,0.0446400950072376,1.27693246465,-23.894238799,0.060424666817257736,0.04342913124713397,0.020573435265394173,61.894230393433915
2.620459211065068,2,Yaoyi,391.0,164.0625,-27.259700945555554,-0.0020273531436974,0.0009737222043014,0.037490656918675,0.04218738537427,5.1457494740000005,-1.46268444735,0.0621188163541902,0.10742230225664048,0.01824376310006724,62.677394058964026
2.4991692992875967,2,Yaoyi,392.0,155.91032608695653,-28.870295912222225,0.0055547914131207,0.0018317929972029,0.0377530167951626,0.067523188539901,5.799681528000001,-1.996008288,0.057404661120986834,0.043263723284158354,0.018795977877755186,61.81762572485168
3.2351693971257016,2,Yaoyi,393.0,164.0625,-28.664486522,-0.00827469056615,0.002853076884083,0.042792122699368,0.1058479265263,5.6037431355,-1.847141432,0.0621188163541902,0.05146220787471884,0.023480455628167952,62.04776646660577
3.299395076907707,2,Yaoyi,394.0,159.98641304347825,-25.5920277275,-0.6019605873158416,0.0058231812816732,0.0542882189935049,0.628535859439604,5.6689220735,-2.741621083,0.059761738737588506,0.173854612101959,0.5032964879785691,67.30786202380384
3.016792161716526,2,Yaoyi,395.0,162.109375,-26.255541601111112,-0.724859322209,0.0062181334089209,0.07433317921598,0.736146083875,5.798254421,-2.077819889,0.060989383329568554,0.14742331923164767,0.6096173664085244,67.86580642863935
2.603990376027894,2,Yaoyi,396.0,142.66304347826087,-25.68453121,-0.5665523745574257,0.0059903982575613,0.076858147210499,0.5859358892653466,5.705803142500001,-3.4860374635,0.04974415886703136,0.17016970552393282,0.4753518750510745,66.83973464403641
2.434045641140175,2,Yaoyi,397.0,106.4453125,-26.276087414444444,-0.453808040579,0.007944315525912,0.069117369300725,0.46361113396,5.751183823,-2.352004775,0.028800542127851818,0.14660487001593417,0.3789501756120291,65.36687068764448
2.60153931608964,2,Yaoyi,398.0,117.1875,-27.661154777777774,-0.3598014866168316,0.0042791110957089,0.0648070068063366,0.3713343549574257,5.598198946,-3.864862669,0.035012423763270836,0.09143025712331833,0.2989511285414872,64.18902058907713
2.494370685932405,2,Yaoyi,399.0,139.60597826086956,-26.02746985222222,-0.2679952812217822,0.0035515390853366,0.0910436023848079,0.2962644253653465,5.5807832535,-2.8954561555,0.04797635065458009,0.15650863218451522,0.22831074997524903,64.66411659910777
2.5178163348083067,2,Yaoyi,400.0,137.6953125,-24.907366097,-0.2123032940359999,0.008836204486143,0.07668357864637,0.234441933091,5.599670258,-0.25476625665,0.046871470521798055,0.20112833280703163,0.1794015939800728,64.78618215596092
2.5436488007548386,2,Yaoyi,401.0,128.39673913043478,-24.49605393222222,-0.1570400522568316,0.0008472387509425,0.0743953926076237,0.2592499776636633,5.5689039755,-2.2563768260000003,0.04149438720892547,0.2175130878524628,0.1347976232653008,64.51842578453046
2.532542589237446,2,Yaoyi,402.0,98.6328125,-24.031159045555555,-0.1270518202571,0.01078818816241,0.07498980399537,0.2268424881328,5.641154444,-2.291925679,0.02428281002936526,0.23603232820612982,0.11268128126163889,64.21949438915398
2.5601482359027385,2,Yaoyi,403.0,101.90217391304348,-24.38886063111111,-0.0880970872914851,0.0028099355674712,0.0816968513226584,0.1643148731049505,5.568880694,-2.6962674336,0.02617338270101453,0.2217831681749487,0.08894077543847224,63.89639187562745
2.583850422722547,2,Yaoyi,404.0,122.0703125,-22.333310825,-0.0681840411226,0.0044980557902833,0.08287289149585,0.1675130658682,5.87567816,-3.800166459,0.037836006324824936,0.30366666917718677,0.07801468854001507,65.02483766494286
2.618841817183361,2,Yaoyi,405.0,87.63586956521739,-20.39891607555556,-0.069329604497198,0.0010805690704079,0.0966773020346435,0.1559049224869802,5.3749763205,-3.8245147475,0.017923611042908634,0.3807239187431922,0.08790638437812885,65.63041032080152
2.8001640072463703,2,Yaoyi,406.0,126.953125,-19.02168693888889,-0.0510437894411301,-0.00265684322994,0.060010295835578,0.1503970553515,5.147408763,-6.4589137355,0.040659588886379036,0.43558629330462917,0.053556428847309545,66.4686787281616
4.022328176594027,2,Yaoyi,407.0,76.42663043478261,-19.257631316666664,-0.0380071069010297,-0.0023076268167554,0.0878543399151033,0.1709087791709901,5.134156736,-2.7004735535,0.011441647597254004,0.4261873715967723,0.06803728783861508,65.88737971381526
4.480622389318481,2,Yaoyi,408.0,101.90217391304348,-18.928587676,-0.03771019830412,0.01663068912767,0.081345785880986,0.2024018496488999,4.969278029,1.763752102,0.02617338270101453,0.4392949329899368,0.06413537478147571,66.30808984815134
4.546616030517939,2,Yaoyi,409.0,78.125,-20.38810102777778,0.0181679894089762,-0.0147364058081782,0.0620878778477881,0.261612586150297,4.4647784405,0.1837941069999999,0.012423763270838039,0.38115473972009994,0.042878796402156166,65.16536251327521
4.6954588151480605,2,Yaoyi,410.0,83.55978260869566,-19.498922716666662,0.0535869543908699,0.01869595932224,0.0781997207357,0.2320162211966999,4.40739456,1.382264424,0.015566533426306952,0.4165754495042052,0.06878473847319486,65.86051397036216
4.784073671015903,2,Yaoyi,411.0,100.5859375,-18.555026886666667,0.0877443938108148,0.02043704160399,0.0735269479304356,0.3891843955035644,3.5590965910000003,13.651263033,0.0254122430539869,0.45417584960739554,0.08561028972820274,66.6432373741941
4.915203757273745,2,Yaoyi,412.0,93.75,-20.231746150000003,0.1215465635002772,0.1809428203570742,0.1054171989561881,0.3996271806730693,1.13743350945,113.881933515,0.02145922746781116,0.3873831875802095,0.19328788626695823,66.62408589045441
4.810229948069644,2,Yaoyi,413.0,92.7734375,-19.315283722,0.1383020835447,0.367812025671982,0.0692575387562,0.531589077386,2.045323028,143.15060105,0.02089451095550034,0.4238907691131648,0.32752560822118326,68.12478431423744
5.0179823099546805,2,Yaoyi,414.0,76.42663043478261,-16.49550319888889,0.1620805545940198,0.5514205529514852,0.0162762284383762,0.6488663060158416,0.33564822085,-49.34177298,0.011441647597254004,0.5362176514897523,0.4780940190941604,70.4881969225754
5.1052513065415575,2,Yaoyi,415.0,74.38858695652173,-16.35415021777778,0.690998478991,0.656018968224,-0.0405972358191299,1.065503795373,0.8338972116,-60.528472055,0.01026310878895316,0.5418484938736587,0.8021273958036101,73.12446326869184
5.064899783671029,2,Yaoyi,416.0,66.40625,-17.244006285555557,1.0138075381683167,0.6104506921574258,-0.0598581550542811,1.2602775895326732,1.533007533,-63.463225615,0.0056471651231082,0.5064007854303486,1.0,74.18975272762634
5.070162858448263,2,Yaoyi,417.0,76.42663043478261,-16.930000715,0.7649057912480001,0.4679462370936,0.076547385299187,1.007465901518,1.428540233,-81.452654635,0.011441647597254004,0.5189093003662814,0.7561624602670386,72.50504423847677
4.978065929082439,2,Yaoyi,418.0,69.3359375,-15.515683542888889,0.498299273570099,0.2952336480105643,0.042628002582296,0.6951159057851485,1.300492454,-91.64318598,0.00734131466004066,0.5752490889891325,0.483041531814467,70.91414761558615
4.755403800517911,2,Yaoyi,419.0,102.9211956521739,-17.944204283333335,0.406252732708,-0.0646191802977,0.05506060439682,0.554666364602,1.69137241345,-124.14549535,0.026762652105164944,0.4785081684369063,0.3412311422933921,69.00720020169331
4.893561361601504,2,Yaoyi,420.0,98.6328125,-18.048294084444443,0.3750671745386138,-0.2407688783148712,0.0209538041209504,0.5928925773970297,3.7375721625,-161.14323885,0.02428281002936526,0.47436171705525415,0.3678935896598591,69.12114552252923
4.920823339973045,2,Yaoyi,421.0,74.38858695652173,-20.313396005,0.31314663878,-0.4099457553544999,-0.0262306561921999,0.623026385716,3.5388334965,-168.01625345,0.01026310878895316,0.3841306388149846,0.42808322357004136,68.23949563011921
4.828463344181767,2,Yaoyi,422.0,79.1015625,-12.610208092222225,0.2524620634672079,-0.4298074477121485,0.0460535041440594,0.5924053936584158,2.8243992635,-2.1974651999999963,0.012988479783148859,0.6909896569234819,0.4144448136351849,71.86720398782624
4.820126368149585,2,Yaoyi,423.0,81.52173913043478,-8.923792007888888,0.6228433068782179,-0.4257227970643564,-0.0343699451816198,0.8227856999861386,2.155887926,-172.1998121,0.014387994618006108,0.8378392512455273,0.6323191604112413,75.40038419059638
4.833479197763142,2,Yaoyi,424.0,79.4836956521739,-4.85301472576,0.5960284226320001,-0.2223795858837199,-0.012497359259951,0.710553670429,2.0931845985,-165.40112065,0.013209455809705263,1.0,0.5305522787345192,76.50860734607025
4.560809695262604,2,Yaoyi,425.0,69.3359375,-11.566477783333331,0.432158684040594,-0.0317751603796059,-0.0398973181421287,0.5544651139772278,2.252441959,-166.5032046,0.00734131466004066,0.7325669962513283,0.3584553728972631,71.80527323139486
4.364496214916172,2,Yaoyi,426.0,79.4836956521739,-18.78281059333333,0.224893928813,0.07859078800141,0.01363020466673,0.307541951519,2.2145928795,-171.42381175,0.013209455809705263,0.445102010910964,0.1902851279986324,67.12769427111473
4.279548550830143,2,Yaoyi,427.0,106.4453125,-17.735927595,0.1554326367459406,0.0730261064044632,0.0108032809060594,0.2523743418564356,1.6411125275,-168.40777375,0.028800542127851818,0.4868049386573033,0.1333424860729879,67.48440999502859
4.104008861831605,2,Yaoyi,428.0,94.76902173913044,-15.688153052222225,0.1212000722796,0.06108836270306,0.00675665648962,0.2167545157572,2.2905272915,-146.76815729999998,0.02204849687196158,0.5683787094934053,0.10238529356749532,68.08059679990006
3.702986842409728,2,Yaoyi,429.0,146.484375,-15.340297371111111,0.0833884110030693,0.0625243844357227,0.0072275348504366,0.2026558061094059,3.004875788,-131.49935820000002,0.051953919132595436,0.5822356546903618,0.07550266961357213,68.62992759584483
4.022655771378347,2,Yaoyi,430.0,123.3016304347826,-17.32317173,0.005067499677258,0.046569064770825,0.0030301499442399,0.2431480780648,2.4508573285,-134.86006945,0.03854804018817336,0.5032472039747997,0.026273143431907082,67.02011239891632
4.104930465134953,2,Yaoyi,431.0,229.2798913043478,-15.171141182,-0.0160398902059903,-0.0217753737490198,-0.0144685125079119,0.2319136067642574,2.5588936075,-137.95797095,0.09983205821981712,0.5889740469878558,0.012351776598143164,69.16314394103576
4.12439071849496,2,Yaoyi,432.0,151.3671875,-16.271462727777777,-0.0206706930499843,-0.140964951962819,0.0705631635378,0.4074234096882,2.7918654225,-131.27626375,0.054777501694149536,0.545142377169582,0.12214785624431075,68.61444140987246
4.182059040446828,2,Yaoyi,433.0,111.0733695652174,-16.324457669444442,-0.0145224563319178,-0.1452590049078188,0.0928958150436049,0.2981264539091089,2.6263044165,-143.71931285,0.03147680733836832,0.5430313062793634,0.1341653686078135,68.21923477098224
4.259550533424783,2,Yaoyi,434.0,67.3828125,-15.755542434888888,-0.0234922895784752,-0.1233394361501782,0.0600739983591386,0.234784133559802,2.5149741175,-149.89179620000002,0.006211881635419019,0.5656942313227861,0.10520500953530047,67.75420848486422
4.272803224920494,2,Yaoyi,435.0,65.21739130434783,-16.909207938,0.0014839239278799,-0.06694151510487,0.01478117642971,0.5778719200513001,2.160652794,-129.6113083,0.004959684151599376,0.5197375874606912,0.044779573552057604,66.69428132097674
4.455681604602142,2,Yaoyi,436.0,83.984375,-18.08619753555556,0.0022820713009238,-0.0331881119983564,0.0180172861103762,0.5366555466056435,1.986593259,-164.82214055,0.01581206234470296,0.4728518206432002,0.018478403391661145,66.13829032174576
4.436432089854347,2,Yaoyi,437.0,67.2554347826087,-19.34722249888889,-0.00299684054855,-0.076849262969774,0.0158504392352929,0.3760676957018,2.361860886,-175.4989776,0.006138222959900221,0.4226184774559077,0.05329684395755049,65.6205609403293
4.241400154280128,2,Yaoyi,438.0,63.4765625,-16.328848908999998,-0.028730129113891,-0.076682402557099,0.0090393901465247,0.3344117095781188,1.880601748,-166.4979515,0.00395301558617574,0.5428563798107954,0.05660068821094044,67.04614237514059
3.972479745147558,2,Yaoyi,439.0,78.46467391304348,-18.33904651888889,-0.02012410118013,0.0932680464499999,0.10510129814138,0.3092910690096,1.7204615685,-162.89049665,0.012620186405554849,0.4627794984262262,0.10756924375253653,66.6663116592461
3.950753311032541,2,Yaoyi,440.0,124.32065217391305,-19.75891993,0.0465408569021089,0.1509452265586653,0.0505709182173267,0.3155286169057426,1.8935535195,-162.28786725,0.03913730959232378,0.406218375199673,0.1280228222680995,66.68154927238734
3.798810556834864,2,Yaoyi,441.0,125.0,-19.278240589,0.033372044491242,0.11552243210264,0.028711384211682,0.2021259501395,3.205857425,-168.46095635,0.0395301558617574,0.4253663944709712,0.09188918846795452,66.63011335863044
3.724066743588753,2,Yaoyi,442.0,199.7282608695652,-18.27775787888889,-0.0108781259872534,0.0832010915093069,0.0327808224910594,0.1727397610770297,3.1378622745,-171.41189715000002,0.08274324549945491,0.465220951510917,0.06318926239281977,67.74303042726265
3.675076939121219,2,Yaoyi,443.0,146.484375,-20.893790572222223,-0.00189819696654,0.057636371234533,0.0314038749913899,0.1312214824412,2.3330051865,-170.12552355000005,0.051953919132595436,0.3610104307881374,0.04229295496689397,65.7095471918447
3.640736068683453,2,Yaoyi,444.0,94.76902173913044,-22.39480085,0.1341959511343792,0.0237896056596534,0.0224077056121306,0.1720940006735643,1.725134721,-155.36068204999998,0.02204849687196158,0.3012171938549416,0.1042892413663095,64.889890194629
3.5708204601621647,2,Yaoyi,445.0,73.2421875,-21.857325591,0.1508621655193,0.033139734247768,0.0511437885206099,0.1992616497841,1.88327172,-161.55780685,0.009600180709283939,0.3226276971558895,0.12532842151934298,65.06616335221109
3.545732150763546,2,Yaoyi,446.0,110.05434782608695,-23.63445680555556,0.0548331143597029,0.0031158093510633,0.0206153487590495,0.1859013544893069,2.040970865,-167.166864,0.03088753793421789,0.25183509210416694,0.036302652386439725,63.93019308302588
3.655377584447633,2,Yaoyi,447.0,131.4538043478261,-22.602131256666667,-0.0969867348057188,0.0434679699524752,0.0423057862632178,0.2035053358957425,2.0078798805,-167.37932195000002,0.043262195421376735,0.29295811907523434,0.08398824327041907,65.0526472834937
4.1992370669798325,2,Yaoyi,448.0,99.609375,-24.531502136666667,-0.052314879838,0.02947941854623,0.03701851179591,0.1716918663395999,1.739992406,-164.39283469999998,0.024847526541676077,0.2161009969970017,0.04646737909538983,63.46190152756066
4.245950530390481,2,Yaoyi,449.0,125.33967391304348,-24.37278654555556,0.0069149418347524,0.0152920975423069,0.0307341696529999,0.2216077644584158,1.697209821,-163.40823475,0.03972657899647421,0.22242348464735184,0.01607025147508485,63.59217540749839
4.070597524234215,2,Yaoyi,450.0,111.328125,-24.446197406666663,-0.001134419771952,0.01863542236713,0.03611882995751,0.2058316968452999,1.9517449725,-167.24159114999998,0.03162412468940592,0.21949913890710504,0.020896929875221397,63.43364759967515
3.9165198479926606,2,Yaoyi,451.0,97.82608695652172,-23.654056385,-0.0431527684795841,0.0343265683245495,0.0449686314332772,0.1268804218265346,2.368908518,-167.26313065,0.02381630508441283,0.25105433642589964,0.04698912614140162,63.864891147930265
3.649585657921869,2,Yaoyi,452.0,97.65625,-25.61840549555556,-0.0400300865951529,0.008077206292698,0.02824163644952,0.1335558541112,2.085712526,-165.63069524999997,0.02371809351705444,0.17280384505627955,0.02859139470436406,62.77673916865135
3.46169269111598,2,Yaoyi,453.0,101.90217391304348,-25.860893306666664,0.0066083190562336,0.0173741506425106,0.025954279267195,0.0949311438240594,1.964223996,-164.25424845,0.02617338270101453,0.16314426353453007,0.013423094911694779,62.58858357572821
3.747877017270179,2,Yaoyi,454.0,121.09375,-24.90757367777778,0.03979723804436,0.00665586986217,0.030448147598432,0.1037977284974999,2.2677446415,-169.42207059999998,0.03727128981251412,0.2011200637586365,0.029359707306440885,63.39374421980545
4.2207311091663575,2,Yaoyi,455.0,116.16847826086956,-25.529605416,0.0428245276488514,0.0102451533146831,0.028043512578446,0.0988203970051485,2.774576678,-170.0853432,0.03442315435912042,0.17634122536283758,0.03077644376703645,63.05076934167275
4.528144604066858,2,Yaoyi,456.0,134.5108695652174,-25.51519025777778,-0.0258629079909219,0.0118135628415628,0.03735375606119,0.0918646496733,2.858897674,-171.2962187,0.045030003633828,0.17691545792058316,0.026275095739649906,63.23378633364076
4.29543677726724,2,Yaoyi,457.0,140.625,-25.512204243333333,0.0068227121396623,0.0116379249852089,0.0288049358415445,0.0667226211664653,2.336093393,-168.6979531,0.04856562005873052,0.17703440678576152,0.013323197591099099,63.20231086333254
4.4512384069597655,2,Yaoyi,458.0,123.3016304347826,-25.999617976000003,0.1033714854247524,0.0063665439262644,0.0199946002388217,0.1187324889628712,2.132699197,-166.8989976,0.03854804018817336,0.15761812081270415,0.07636184755761687,63.27327303397685
4.564507366079023,2,Yaoyi,459.0,89.84375,-25.369078768888887,0.1000456083839999,0.004570204584684,0.026754981869422,0.1088521532411,2.995268622,-169.14638795000002,0.019200361418567877,0.1827358570231994,0.07480657422376776,63.17529010643989
4.605077682423709,2,Yaoyi,460.0,124.32065217391305,-25.49407712555556,0.0308507933795049,0.0076677712124811,0.0321622449705376,0.0888231952255445,2.9759059805000003,-169.42454329999998,0.03913730959232378,0.17775650647038657,0.024801012045208883,63.114232365852786
4.555175128732824,2,Yaoyi,461.0,107.421875,-25.99658999,-0.020768776438622,0.01095419572918,0.03731310037017,0.0852803213011,1.37710971415,-150.88349440000002,0.02936525864016264,0.15773874162857,0.023829758507941622,62.670808140409626
4.451150655765059,2,Yaoyi,462.0,146.7391304347826,-27.529436264000005,0.0730083939755445,0.0046096611437811,0.0273480991682871,0.0978604184656435,0.5940860451000001,-59.361724925,0.05210123648363303,0.0966773073396984,0.052932810439069264,62.6256149012616
4.544381980935902,2,Yaoyi,463.0,158.9673913043478,-25.57765744888889,0.0639016529385,0.00355911647928,0.0277695381049049,0.0814855428073,0.5157986984,-59.10080974500001,0.05917246933343809,0.17442705686566992,0.045802542718628894,63.642994410805834
4.590561756448895,2,Yaoyi,464.0,141.6015625,-27.24413295333333,-0.0320467783846534,0.0079938110156831,0.0370935782341782,0.1751993067092079,0.68631317105,-68.17818646,0.049130336571041336,0.108042458335049,0.0286051055391503,62.50795707575462
4.601579068368393,2,Yaoyi,465.0,149.7961956521739,-27.714871603,-0.426156163801,0.0155835375924668,0.0722781694319978,0.446981032178,0.5242517272,-30.2244141305,0.0538690446960843,0.08929042976479637,0.35620051466239333,64.99847016839838
4.916295135226808,2,Yaoyi,466.0,164.0625,-23.91456621111111,-0.3154006323148515,0.0118646811657524,0.0482662410665653,0.3275657201950495,0.58935519915,-61.949789245000005,0.0621188163541902,0.2406768420231642,0.2593138143882696,66.20500894646793
5.045067588341258,2,Yaoyi,467.0,986.4130434782608,-24.750626321111117,-0.2384144375209999,0.0121032938396459,0.042927117366495,0.247397906763,0.55557193345,-59.53904149,0.5376592255035797,0.20737211320969157,0.19364805641131416,74.7908343198784
4.909841499163044,2,Yaoyi,468.0,214.84375,-26.778888805555557,-0.1812191870514851,0.0126832164579782,0.0458148624828831,0.1976679264435643,0.5502465569999999,-64.59857475,0.09148407499435283,0.1265756116196781,0.1464157089650811,64.51991451104384
4.481270371838329,2,Yaoyi,469.0,162.02445652173913,-26.644203573,-0.1361596977099,0.012816256904126,0.037980156578096,0.1544667244793,0.5790261924,-67.62105335000001,0.06094027754588935,0.13194084205202383,0.10755725135905186,63.66255366641449
4.492440955153064,2,Yaoyi,470.0,124.0234375,-28.407670002222225,-0.1028672897194059,0.0091971940494881,0.0340421942725217,0.1190187140786138,0.58889523105,-64.029026955,0.03896543934944658,0.0616925782078024,0.07915446420664914,62.152855439135756
4.522291765192737,2,Yaoyi,471.0,143.6820652173913,-28.099420986666665,-0.0784625327290099,0.0067461924936673,0.0292751388200405,0.0979051559123762,0.5561594881,-63.29239233,0.050333428271181785,0.07397177888644473,0.05799724931265292,62.358307906562196
4.810081813381248,2,Yaoyi,472.0,140.625,-27.91015383222222,-0.0605043629026,0.0057029794601935,0.0321855775593763,0.0775688396388,0.5613179961,-62.99205281,0.04856562005873052,0.0815112980868881,0.04495004441783318,62.309048333559936
5.050448839458958,2,Yaoyi,473.0,153.3203125,-27.945635232,-0.0438951832288712,0.0071786320837168,0.0297933873857158,0.068134495340099,0.56076760595,-64.539018385,0.05590693471877118,0.08009788488443147,0.03191439692120329,62.33462848835823
5.047485266451134,2,Yaoyi,474.0,158.9673913043478,-27.555704610000003,-0.033030198358259,0.0068893700149023,0.030623528980649,0.0560521767752,0.6066223471,-62.612146685,0.05917246933343809,0.09563089915750633,0.025095839992216387,62.53178689649657
4.975122438321355,2,Yaoyi,475.0,127.9296875,-27.980781376666663,-0.0268344089705089,0.0044599264697514,0.0258092393732653,0.0508470217533168,0.55572856205,-62.63419111499999,0.041224305398689855,0.07869782667933153,0.018192297833623455,61.91439841079476
4.66890204729746,2,Yaoyi,476.0,158.9673913043478,-26.665552665,-0.019096341930911,0.005042366517581,0.028004105007508,0.04720369415665,0.56730446435,-62.47651845,0.05917246933343809,0.1310903939670483,0.015428955540147532,62.87996575859452
4.583217194086265,2,Yaoyi,477.0,156.25,-28.612061704444443,-0.0130509469821689,0.0041144721736534,0.0265794045148613,0.0419354391388415,0.5690189779,-63.97022977,0.057601084255703636,0.05355056768390005,0.01168691012475034,61.88812377831888
4.531084280205977,2,Yaoyi,478.0,134.5108695652174,-24.21702636,-0.01259680724593,0.0031647517510469,0.0291547493400207,0.04349668626989,0.5868343684499999,-70.42979856,0.045030003633828,0.2286282427476565,0.013416916295143444,63.751474316009585
4.499720875793457,2,Yaoyi,479.0,915.0815217391304,-24.75412842333333,-0.008831889975465,0.0031249593745346,0.0226238094397425,0.0507804919869306,0.56070166475,-65.99392899,0.4964103672130503,0.2072326058185449,0.0070591916578578535,72.4714721473464
4.499500414239604,2,Yaoyi,480.0,774.4140625,-24.19644891,-0.0068089898029417,0.0012866874786743,0.027995170462415,0.05034758415993,3.1665224800000003,-11.451057702,0.41506663654845266,0.2294479522203674,0.010784073115654724,71.1409807425387
4.650137967675153,2,Yaoyi,481.0,659.3070652173913,-23.585057787777775,-0.0071569557752405,0.0037661586748049,0.0286608627649029,0.0506922430827722,6.821948552,-3.2119430805,0.3485037467712947,0.25380291818636214,0.011588406053178653,70.10841720208767
4.5600857836299005,2,Yaoyi,482.0,145.5078125,-28.53873069,-0.0080730480251544,0.0007178217061524,0.0257053152461465,0.0434179145621782,6.611892906,-4.105597779,0.05138920262028462,0.056471732705980764,0.00916922523017361,61.77879864671885
4.170305186154082,2,Yaoyi,483.0,154.8913043478261,-28.263482695,-0.209669472753406,0.0013043541101789,0.0414651965075449,0.2430460827566,7.262449693,-3.967798441,0.05681539171683641,0.06743632690235624,0.1689912354858105,63.29747364105149
4.128173436301238,2,Yaoyi,484.0,149.4140625,-26.971518056666667,-0.8485143765841584,0.0226246409333752,0.0956237958787623,0.8574813638435644,7.243017706,-3.524307854,0.0536480686695279,0.11890216219533248,0.7170013325561052,68.23579798018339
4.457826398489142,2,Yaoyi,485.0,144.70108695652175,-25.76850079444445,-0.79569048118,0.0176782938286399,0.091435378683409,0.8171721711790001,7.046572886,-3.5763239,0.05092269767533221,0.16682474957512863,0.6715969951044974,68.39312690924416
4.874080117280007,2,Yaoyi,486.0,109.375,-26.317925621,-0.6318510735752475,0.0115371564007603,0.096590722714495,0.6435765836326732,6.669473802500001,-3.8597594615,0.030494691664784277,0.14493823132966213,0.5331280994495765,66.61417740484825
4.886271600080928,2,Yaoyi,487.0,114.1304347826087,-23.352841398888888,-0.473704268825,0.0115162195011569,0.0825673744811509,0.4872056841989999,6.280919696,-4.4789110835,0.03324461555081958,0.26305333423358657,0.3976669889386824,67.00286823332888
4.907075532097026,2,Yaoyi,488.0,91.71195652173913,-24.709822876666667,-0.3565805898544554,0.0140775374957782,0.1100229407251633,0.3833139157554455,6.1994244265,-4.753683464,0.020280688659510316,0.20899753180773709,0.30564032674836455,65.35870676886996
5.06371507065301,2,Yaoyi,489.0,98.6328125,-22.99348793888889,-0.2258586713375,0.007357677170684,0.08236985552963,0.297976705578,6.1118155345,-6.2814930875,0.02428281002936526,0.2773682972252821,0.19191289342768078,65.34937891471213
5.188127250033094,2,Yaoyi,490.0,85.59782608695652,-24.33624692,-0.1072331471175841,0.0173374792660306,0.0872518740782376,0.201362909660297,5.338886024000001,-4.078079411999999,0.016745072234607788,0.22387905262089589,0.10532493673904496,63.864049570055265
5.01398829441853,2,Yaoyi,491.0,86.9140625,-22.895111643333333,-0.02445913001952,0.011826103291505,0.08820300862949,0.1597371323832,5.6281681095,-2.87817440555,0.017506211881635418,0.28128714923838893,0.06507785931872319,64.24619290304317
5.3611911288043546,2,Yaoyi,492.0,93.75,-19.701305914444443,-0.0280200473677623,-0.0017590136156237,0.0912372378443363,0.1634501237127722,4.639341594,-4.996281123,0.02145922746781116,0.4085134484138861,0.06778758533082345,65.87364661296944
5.184019723825199,2,Yaoyi,493.0,126.953125,-18.04688459888889,0.033485769728563,0.000620400910327,0.0061216254832999,0.1752077985331,4.845231128,-16.995196525,0.040659588886379036,0.474417864374846,0.015238951117006289,66.62811775916178
